Start Wavelength:    200.0000
End Wavelength:    800.0000
Read Mode:  ABS
Read Average:      0.1000
Nanometer Interval:      1.0000
Time:      0.0000

  200.0000      0.6821
  201.0000      0.6042
  202.0000      0.5623
  203.0000      0.5297
  204.0000      0.5007
  205.0000      0.4766
  206.0000      0.4575
  207.0000      0.4412
  208.0000      0.4256
  209.0000      0.4107
  210.0000      0.3978
  211.0000      0.3863
  212.0000      0.3749
  213.0000      0.3642
  214.0000      0.3551
  215.0000      0.3469
  216.0000      0.3387
  217.0000      0.3303
  218.0000      0.3231
  219.0000      0.3165
  220.0000      0.3095
  221.0000      0.3034
  222.0000      0.2973
  223.0000      0.2910
  224.0000      0.2855
  225.0000      0.2798
  226.0000      0.2741
  227.0000      0.2686
  228.0000      0.2636
  229.0000      0.2581
  230.0000      0.2528
  231.0000      0.2479
  232.0000      0.2427
  233.0000      0.2377
  234.0000      0.2334
  235.0000      0.2292
  236.0000      0.2253
  237.0000      0.2214
  238.0000      0.2180
  239.0000      0.2149
  240.0000      0.2117
  241.0000      0.2088
  242.0000      0.2062
  243.0000      0.2042
  244.0000      0.2015
  245.0000      0.1995
  246.0000      0.1977
  247.0000      0.1951
  248.0000      0.1932
  249.0000      0.1918
  250.0000      0.1898
  251.0000      0.1884
  252.0000      0.1866
  253.0000      0.1848
  254.0000      0.1834
  255.0000      0.1816
  256.0000      0.1803
  257.0000      0.1782
  258.0000      0.1769
  259.0000      0.1752
  260.0000      0.1735
  261.0000      0.1722
  262.0000      0.1708
  263.0000      0.1688
  264.0000      0.1678
  265.0000      0.1658
  266.0000      0.1646
  267.0000      0.1625
  268.0000      0.1608
  269.0000      0.1589
  270.0000      0.1572
  271.0000      0.1549
  272.0000      0.1526
  273.0000      0.1509
  274.0000      0.1487
  275.0000      0.1467
  276.0000      0.1448
  277.0000      0.1420
  278.0000      0.1401
  279.0000      0.1386
  280.0000      0.1367
  281.0000      0.1340
  282.0000      0.1319
  283.0000      0.1297
  284.0000      0.1276
  285.0000      0.1257
  286.0000      0.1238
  287.0000      0.1215
  288.0000      0.1191
  289.0000      0.1173
  290.0000      0.1150
  291.0000      0.1129
  292.0000      0.1111
  293.0000      0.1086
  294.0000      0.1073
  295.0000      0.1053
  296.0000      0.1027
  297.0000      0.1014
  298.0000      0.0995
  299.0000      0.0979
  300.0000      0.0965
  301.0000      0.0949
  302.0000      0.0935
  303.0000      0.0917
  304.0000      0.0904
  305.0000      0.0897
  306.0000      0.0881
  307.0000      0.0878
  308.0000      0.0861
  309.0000      0.0847
  310.0000      0.0846
  311.0000      0.0834
  312.0000      0.0818
  313.0000      0.0812
  314.0000      0.0801
  315.0000      0.0789
  316.0000      0.0783
  317.0000      0.0775
  318.0000      0.0762
  319.0000      0.0754
  320.0000      0.0744
  321.0000      0.0744
  322.0000      0.0742
  323.0000      0.0736
  324.0000      0.0726
  325.0000      0.0721
  326.0000      0.0714
  327.0000      0.0701
  328.0000      0.0699
  329.0000      0.0688
  330.0000      0.0687
  331.0000      0.0682
  332.0000      0.0677
  333.0000      0.0670
  334.0000      0.0671
  335.0000      0.0663
  336.0000      0.0659
  337.0000      0.0654
  338.0000      0.0650
  339.0000      0.0647
  340.0000      0.0643
  341.0000      0.0638
  342.0000      0.0632
  343.0000      0.0626
  344.0000      0.0623
  345.0000      0.0621
  346.0000      0.0616
  347.0000      0.0609
  348.0000      0.0607
  349.0000      0.0608
  350.0000      0.0601
  351.0000      0.0598
  352.0000      0.0591
  353.0000      0.0587
  354.0000      0.0583
  355.0000      0.0577
  356.0000      0.0576
  357.0000      0.0552
  358.0000      0.0540
  359.0000      0.0542
  360.0000      0.0548
  361.0000      0.0543
  362.0000      0.0543
  363.0000      0.0541
  364.0000      0.0525
  365.0000      0.0538
  366.0000      0.0525
  367.0000      0.0530
  368.0000      0.0513
  369.0000      0.0531
  370.0000      0.0533
  371.0000      0.0524
  372.0000      0.0525
  373.0000      0.0512
  374.0000      0.0518
  375.0000      0.0506
  376.0000      0.0503
  377.0000      0.0499
  378.0000      0.0501
  379.0000      0.0503
  380.0000      0.0495
  381.0000      0.0496
  382.0000      0.0498
  383.0000      0.0496
  384.0000      0.0490
  385.0000      0.0481
  386.0000      0.0478
  387.0000      0.0484
  388.0000      0.0481
  389.0000      0.0480
  390.0000      0.0473
  391.0000      0.0474
  392.0000      0.0473
  393.0000      0.0468
  394.0000      0.0465
  395.0000      0.0460
  396.0000      0.0462
  397.0000      0.0460
  398.0000      0.0461
  399.0000      0.0458
  400.0000      0.0455
  401.0000      0.0451
  402.0000      0.0452
  403.0000      0.0443
  404.0000      0.0441
  405.0000      0.0439
  406.0000      0.0439
  407.0000      0.0434
  408.0000      0.0430
  409.0000      0.0429
  410.0000      0.0424
  411.0000      0.0419
  412.0000      0.0416
  413.0000      0.0415
  414.0000      0.0412
  415.0000      0.0408
  416.0000      0.0421
  417.0000      0.0419
  418.0000      0.0417
  419.0000      0.0415
  420.0000      0.0413
  421.0000      0.0412
  422.0000      0.0411
  423.0000      0.0408
  424.0000      0.0406
  425.0000      0.0405
  426.0000      0.0401
  427.0000      0.0399
  428.0000      0.0396
  429.0000      0.0393
  430.0000      0.0391
  431.0000      0.0388
  432.0000      0.0385
  433.0000      0.0383
  434.0000      0.0380
  435.0000      0.0378
  436.0000      0.0374
  437.0000      0.0372
  438.0000      0.0369
  439.0000      0.0365
  440.0000      0.0365
  441.0000      0.0363
  442.0000      0.0362
  443.0000      0.0358
  444.0000      0.0357
  445.0000      0.0353
  446.0000      0.0351
  447.0000      0.0349
  448.0000      0.0347
  449.0000      0.0345
  450.0000      0.0343
  451.0000      0.0340
  452.0000      0.0338
  453.0000      0.0337
  454.0000      0.0335
  455.0000      0.0333
  456.0000      0.0332
  457.0000      0.0331
  458.0000      0.0331
  459.0000      0.0329
  460.0000      0.0328
  461.0000      0.0328
  462.0000      0.0328
  463.0000      0.0327
  464.0000      0.0328
  465.0000      0.0329
  466.0000      0.0328
  467.0000      0.0329
  468.0000      0.0329
  469.0000      0.0329
  470.0000      0.0328
  471.0000      0.0328
  472.0000      0.0327
  473.0000      0.0326
  474.0000      0.0324
  475.0000      0.0323
  476.0000      0.0322
  477.0000      0.0321
  478.0000      0.0320
  479.0000      0.0319
  480.0000      0.0318
  481.0000      0.0317
  482.0000      0.0317
  483.0000      0.0316
  484.0000      0.0314
  485.0000      0.0314
  486.0000      0.0313
  487.0000      0.0312
  488.0000      0.0311
  489.0000      0.0310
  490.0000      0.0310
  491.0000      0.0308
  492.0000      0.0307
  493.0000      0.0306
  494.0000      0.0305
  495.0000      0.0304
  496.0000      0.0303
  497.0000      0.0301
  498.0000      0.0300
  499.0000      0.0298
  500.0000      0.0296
  501.0000      0.0294
  502.0000      0.0291
  503.0000      0.0289
  504.0000      0.0288
  505.0000      0.0286
  506.0000      0.0285
  507.0000      0.0283
  508.0000      0.0282
  509.0000      0.0281
  510.0000      0.0282
  511.0000      0.0281
  512.0000      0.0282
  513.0000      0.0281
  514.0000      0.0279
  515.0000      0.0278
  516.0000      0.0277
  517.0000      0.0276
  518.0000      0.0277
  519.0000      0.0277
  520.0000      0.0277
  521.0000      0.0276
  522.0000      0.0276
  523.0000      0.0276
  524.0000      0.0276
  525.0000      0.0275
  526.0000      0.0275
  527.0000      0.0275
  528.0000      0.0275
  529.0000      0.0275
  530.0000      0.0275
  531.0000      0.0275
  532.0000      0.0275
  533.0000      0.0274
  534.0000      0.0273
  535.0000      0.0272
  536.0000      0.0271
  537.0000      0.0269
  538.0000      0.0268
  539.0000      0.0268
  540.0000      0.0268
  541.0000      0.0267
  542.0000      0.0266
  543.0000      0.0265
  544.0000      0.0264
  545.0000      0.0263
  546.0000      0.0262
  547.0000      0.0260
  548.0000      0.0258
  549.0000      0.0257
  550.0000      0.0255
  551.0000      0.0254
  552.0000      0.0253
  553.0000      0.0252
  554.0000      0.0253
  555.0000      0.0253
  556.0000      0.0252
  557.0000      0.0242
  558.0000      0.0240
  559.0000      0.0240
  560.0000      0.0240
  561.0000      0.0240
  562.0000      0.0239
  563.0000      0.0239
  564.0000      0.0238
  565.0000      0.0236
  566.0000      0.0233
  567.0000      0.0231
  568.0000      0.0230
  569.0000      0.0230
  570.0000      0.0229
  571.0000      0.0229
  572.0000      0.0228
  573.0000      0.0228
  574.0000      0.0228
  575.0000      0.0227
  576.0000      0.0225
  577.0000      0.0224
  578.0000      0.0224
  579.0000      0.0223
  580.0000      0.0223
  581.0000      0.0222
  582.0000      0.0222
  583.0000      0.0220
  584.0000      0.0219
  585.0000      0.0218
  586.0000      0.0217
  587.0000      0.0217
  588.0000      0.0216
  589.0000      0.0215
  590.0000      0.0213
  591.0000      0.0211
  592.0000      0.0210
  593.0000      0.0209
  594.0000      0.0209
  595.0000      0.0210
  596.0000      0.0210
  597.0000      0.0210
  598.0000      0.0209
  599.0000      0.0208
  600.0000      0.0207
  601.0000      0.0206
  602.0000      0.0206
  603.0000      0.0206
  604.0000      0.0207
  605.0000      0.0206
  606.0000      0.0206
  607.0000      0.0206
  608.0000      0.0206
  609.0000      0.0206
  610.0000      0.0207
  611.0000      0.0207
  612.0000      0.0207
  613.0000      0.0208
  614.0000      0.0208
  615.0000      0.0208
  616.0000      0.0208
  617.0000      0.0208
  618.0000      0.0207
  619.0000      0.0206
  620.0000      0.0206
  621.0000      0.0206
  622.0000      0.0206
  623.0000      0.0206
  624.0000      0.0207
  625.0000      0.0208
  626.0000      0.0208
  627.0000      0.0208
  628.0000      0.0208
  629.0000      0.0208
  630.0000      0.0208
  631.0000      0.0208
  632.0000      0.0208
  633.0000      0.0208
  634.0000      0.0207
  635.0000      0.0207
  636.0000      0.0207
  637.0000      0.0206
  638.0000      0.0206
  639.0000      0.0205
  640.0000      0.0205
  641.0000      0.0205
  642.0000      0.0204
  643.0000      0.0204
  644.0000      0.0203
  645.0000      0.0204
  646.0000      0.0203
  647.0000      0.0202
  648.0000      0.0202
  649.0000      0.0202
  650.0000      0.0202
  651.0000      0.0201
  652.0000      0.0201
  653.0000      0.0200
  654.0000      0.0201
  655.0000      0.0201
  656.0000      0.0200
  657.0000      0.0200
  658.0000      0.0200
  659.0000      0.0200
  660.0000      0.0201
  661.0000      0.0201
  662.0000      0.0201
  663.0000      0.0201
  664.0000      0.0202
  665.0000      0.0202
  666.0000      0.0202
  667.0000      0.0201
  668.0000      0.0200
  669.0000      0.0199
  670.0000      0.0198
  671.0000      0.0197
  672.0000      0.0196
  673.0000      0.0195
  674.0000      0.0195
  675.0000      0.0195
  676.0000      0.0195
  677.0000      0.0195
  678.0000      0.0195
  679.0000      0.0194
  680.0000      0.0194
  681.0000      0.0193
  682.0000      0.0192
  683.0000      0.0192
  684.0000      0.0191
  685.0000      0.0190
  686.0000      0.0189
  687.0000      0.0188
  688.0000      0.0187
  689.0000      0.0186
  690.0000      0.0185
  691.0000      0.0185
  692.0000      0.0184
  693.0000      0.0183
  694.0000      0.0182
  695.0000      0.0180
  696.0000      0.0180
  697.0000      0.0179
  698.0000      0.0177
  699.0000      0.0176
  700.0000      0.0175
  701.0000      0.0174
  702.0000      0.0173
  703.0000      0.0172
  704.0000      0.0170
  705.0000      0.0170
  706.0000      0.0169
  707.0000      0.0168
  708.0000      0.0168
  709.0000      0.0168
  710.0000      0.0167
  711.0000      0.0167
  712.0000      0.0168
  713.0000      0.0168
  714.0000      0.0168
  715.0000      0.0168
  716.0000      0.0168
  717.0000      0.0167
  718.0000      0.0167
  719.0000      0.0167
  720.0000      0.0166
  721.0000      0.0166
  722.0000      0.0166
  723.0000      0.0165
  724.0000      0.0165
  725.0000      0.0165
  726.0000      0.0165
  727.0000      0.0165
  728.0000      0.0164
  729.0000      0.0164
  730.0000      0.0163
  731.0000      0.0162
  732.0000      0.0161
  733.0000      0.0161
  734.0000      0.0160
  735.0000      0.0160
  736.0000      0.0151
  737.0000      0.0150
  738.0000      0.0150
  739.0000      0.0149
  740.0000      0.0148
  741.0000      0.0148
  742.0000      0.0148
  743.0000      0.0148
  744.0000      0.0148
  745.0000      0.0147
  746.0000      0.0147
  747.0000      0.0147
  748.0000      0.0148
  749.0000      0.0148
  750.0000      0.0148
  751.0000      0.0148
  752.0000      0.0149
  753.0000      0.0149
  754.0000      0.0149
  755.0000      0.0150
  756.0000      0.0150
  757.0000      0.0150
  758.0000      0.0151
  759.0000      0.0151
  760.0000      0.0151
  761.0000      0.0152
  762.0000      0.0152
  763.0000      0.0152
  764.0000      0.0152
  765.0000      0.0151
  766.0000      0.0150
  767.0000      0.0150
  768.0000      0.0150
  769.0000      0.0149
  770.0000      0.0148
  771.0000      0.0147
  772.0000      0.0147
  773.0000      0.0146
  774.0000      0.0146
  775.0000      0.0146
  776.0000      0.0145
  777.0000      0.0145
  778.0000      0.0145
  779.0000      0.0144
  780.0000      0.0144
  781.0000      0.0144
  782.0000      0.0144
  783.0000      0.0144
  784.0000      0.0144
  785.0000      0.0144
  786.0000      0.0144
  787.0000      0.0143
  788.0000      0.0143
  789.0000      0.0143
  790.0000      0.0143
  791.0000      0.0143
  792.0000      0.0143
  793.0000      0.0143
  794.0000      0.0143
  795.0000      0.0142
  796.0000      0.0142
  797.0000      0.0142
  798.0000      0.0142
  799.0000      0.0142
  800.0000      0.0142
