Start Wavelength:    200.0000
End Wavelength:    800.0000
Read Mode:  ABS
Read Average:      0.1000
Nanometer Interval:      1.0000
Time:      0.0000

  200.0000      0.7367
  201.0000      0.6500
  202.0000      0.6118
  203.0000      0.5763
  204.0000      0.5444
  205.0000      0.5204
  206.0000      0.4992
  207.0000      0.4817
  208.0000      0.4645
  209.0000      0.4478
  210.0000      0.4345
  211.0000      0.4213
  212.0000      0.4101
  213.0000      0.3979
  214.0000      0.3887
  215.0000      0.3786
  216.0000      0.3700
  217.0000      0.3605
  218.0000      0.3523
  219.0000      0.3453
  220.0000      0.3376
  221.0000      0.3299
  222.0000      0.3236
  223.0000      0.3169
  224.0000      0.3109
  225.0000      0.3050
  226.0000      0.2992
  227.0000      0.2942
  228.0000      0.2886
  229.0000      0.2830
  230.0000      0.2781
  231.0000      0.2732
  232.0000      0.2682
  233.0000      0.2630
  234.0000      0.2584
  235.0000      0.2540
  236.0000      0.2500
  237.0000      0.2453
  238.0000      0.2416
  239.0000      0.2386
  240.0000      0.2345
  241.0000      0.2316
  242.0000      0.2289
  243.0000      0.2262
  244.0000      0.2237
  245.0000      0.2212
  246.0000      0.2192
  247.0000      0.2167
  248.0000      0.2148
  249.0000      0.2132
  250.0000      0.2109
  251.0000      0.2094
  252.0000      0.2078
  253.0000      0.2055
  254.0000      0.2044
  255.0000      0.2027
  256.0000      0.2010
  257.0000      0.1996
  258.0000      0.1980
  259.0000      0.1964
  260.0000      0.1950
  261.0000      0.1935
  262.0000      0.1918
  263.0000      0.1897
  264.0000      0.1888
  265.0000      0.1864
  266.0000      0.1854
  267.0000      0.1836
  268.0000      0.1820
  269.0000      0.1813
  270.0000      0.1791
  271.0000      0.1770
  272.0000      0.1751
  273.0000      0.1736
  274.0000      0.1713
  275.0000      0.1691
  276.0000      0.1672
  277.0000      0.1646
  278.0000      0.1625
  279.0000      0.1606
  280.0000      0.1584
  281.0000      0.1561
  282.0000      0.1540
  283.0000      0.1515
  284.0000      0.1489
  285.0000      0.1469
  286.0000      0.1443
  287.0000      0.1423
  288.0000      0.1397
  289.0000      0.1377
  290.0000      0.1349
  291.0000      0.1329
  292.0000      0.1306
  293.0000      0.1284
  294.0000      0.1262
  295.0000      0.1237
  296.0000      0.1211
  297.0000      0.1192
  298.0000      0.1171
  299.0000      0.1151
  300.0000      0.1135
  301.0000      0.1116
  302.0000      0.1097
  303.0000      0.1077
  304.0000      0.1067
  305.0000      0.1054
  306.0000      0.1038
  307.0000      0.1028
  308.0000      0.1013
  309.0000      0.0993
  310.0000      0.0992
  311.0000      0.0977
  312.0000      0.0963
  313.0000      0.0953
  314.0000      0.0943
  315.0000      0.0931
  316.0000      0.0927
  317.0000      0.0915
  318.0000      0.0907
  319.0000      0.0901
  320.0000      0.0892
  321.0000      0.0897
  322.0000      0.0883
  323.0000      0.0874
  324.0000      0.0868
  325.0000      0.0858
  326.0000      0.0853
  327.0000      0.0844
  328.0000      0.0841
  329.0000      0.0829
  330.0000      0.0826
  331.0000      0.0820
  332.0000      0.0815
  333.0000      0.0806
  334.0000      0.0806
  335.0000      0.0798
  336.0000      0.0791
  337.0000      0.0788
  338.0000      0.0778
  339.0000      0.0775
  340.0000      0.0773
  341.0000      0.0768
  342.0000      0.0760
  343.0000      0.0752
  344.0000      0.0747
  345.0000      0.0744
  346.0000      0.0738
  347.0000      0.0730
  348.0000      0.0725
  349.0000      0.0724
  350.0000      0.0716
  351.0000      0.0715
  352.0000      0.0705
  353.0000      0.0703
  354.0000      0.0700
  355.0000      0.0697
  356.0000      0.0694
  357.0000      0.0695
  358.0000      0.0679
  359.0000      0.0676
  360.0000      0.0681
  361.0000      0.0675
  362.0000      0.0681
  363.0000      0.0682
  364.0000      0.0671
  365.0000      0.0673
  366.0000      0.0655
  367.0000      0.0659
  368.0000      0.0644
  369.0000      0.0653
  370.0000      0.0647
  371.0000      0.0643
  372.0000      0.0640
  373.0000      0.0640
  374.0000      0.0634
  375.0000      0.0630
  376.0000      0.0626
  377.0000      0.0629
  378.0000      0.0620
  379.0000      0.0620
  380.0000      0.0615
  381.0000      0.0613
  382.0000      0.0609
  383.0000      0.0603
  384.0000      0.0601
  385.0000      0.0599
  386.0000      0.0591
  387.0000      0.0601
  388.0000      0.0593
  389.0000      0.0589
  390.0000      0.0585
  391.0000      0.0579
  392.0000      0.0580
  393.0000      0.0573
  394.0000      0.0568
  395.0000      0.0566
  396.0000      0.0564
  397.0000      0.0562
  398.0000      0.0562
  399.0000      0.0560
  400.0000      0.0556
  401.0000      0.0552
  402.0000      0.0550
  403.0000      0.0547
  404.0000      0.0547
  405.0000      0.0542
  406.0000      0.0542
  407.0000      0.0542
  408.0000      0.0536
  409.0000      0.0534
  410.0000      0.0533
  411.0000      0.0531
  412.0000      0.0527
  413.0000      0.0529
  414.0000      0.0521
  415.0000      0.0521
  416.0000      0.0523
  417.0000      0.0521
  418.0000      0.0520
  419.0000      0.0518
  420.0000      0.0516
  421.0000      0.0514
  422.0000      0.0513
  423.0000      0.0510
  424.0000      0.0508
  425.0000      0.0506
  426.0000      0.0503
  427.0000      0.0502
  428.0000      0.0498
  429.0000      0.0496
  430.0000      0.0495
  431.0000      0.0494
  432.0000      0.0493
  433.0000      0.0490
  434.0000      0.0488
  435.0000      0.0488
  436.0000      0.0486
  437.0000      0.0485
  438.0000      0.0484
  439.0000      0.0483
  440.0000      0.0482
  441.0000      0.0481
  442.0000      0.0479
  443.0000      0.0477
  444.0000      0.0476
  445.0000      0.0474
  446.0000      0.0472
  447.0000      0.0471
  448.0000      0.0469
  449.0000      0.0467
  450.0000      0.0465
  451.0000      0.0464
  452.0000      0.0461
  453.0000      0.0458
  454.0000      0.0456
  455.0000      0.0454
  456.0000      0.0453
  457.0000      0.0452
  458.0000      0.0452
  459.0000      0.0452
  460.0000      0.0453
  461.0000      0.0455
  462.0000      0.0455
  463.0000      0.0456
  464.0000      0.0457
  465.0000      0.0457
  466.0000      0.0456
  467.0000      0.0456
  468.0000      0.0455
  469.0000      0.0454
  470.0000      0.0452
  471.0000      0.0451
  472.0000      0.0449
  473.0000      0.0447
  474.0000      0.0445
  475.0000      0.0444
  476.0000      0.0442
  477.0000      0.0440
  478.0000      0.0438
  479.0000      0.0436
  480.0000      0.0433
  481.0000      0.0431
  482.0000      0.0429
  483.0000      0.0428
  484.0000      0.0426
  485.0000      0.0424
  486.0000      0.0421
  487.0000      0.0418
  488.0000      0.0416
  489.0000      0.0414
  490.0000      0.0412
  491.0000      0.0411
  492.0000      0.0409
  493.0000      0.0407
  494.0000      0.0404
  495.0000      0.0402
  496.0000      0.0400
  497.0000      0.0398
  498.0000      0.0396
  499.0000      0.0394
  500.0000      0.0393
  501.0000      0.0391
  502.0000      0.0389
  503.0000      0.0388
  504.0000      0.0386
  505.0000      0.0385
  506.0000      0.0383
  507.0000      0.0382
  508.0000      0.0379
  509.0000      0.0377
  510.0000      0.0375
  511.0000      0.0372
  512.0000      0.0371
  513.0000      0.0368
  514.0000      0.0366
  515.0000      0.0363
  516.0000      0.0361
  517.0000      0.0359
  518.0000      0.0357
  519.0000      0.0355
  520.0000      0.0353
  521.0000      0.0352
  522.0000      0.0352
  523.0000      0.0351
  524.0000      0.0350
  525.0000      0.0349
  526.0000      0.0349
  527.0000      0.0348
  528.0000      0.0347
  529.0000      0.0346
  530.0000      0.0345
  531.0000      0.0344
  532.0000      0.0344
  533.0000      0.0344
  534.0000      0.0343
  535.0000      0.0343
  536.0000      0.0343
  537.0000      0.0343
  538.0000      0.0344
  539.0000      0.0345
  540.0000      0.0344
  541.0000      0.0344
  542.0000      0.0344
  543.0000      0.0344
  544.0000      0.0344
  545.0000      0.0344
  546.0000      0.0344
  547.0000      0.0343
  548.0000      0.0341
  549.0000      0.0339
  550.0000      0.0338
  551.0000      0.0338
  552.0000      0.0337
  553.0000      0.0336
  554.0000      0.0335
  555.0000      0.0335
  556.0000      0.0334
  557.0000      0.0328
  558.0000      0.0326
  559.0000      0.0324
  560.0000      0.0323
  561.0000      0.0322
  562.0000      0.0322
  563.0000      0.0321
  564.0000      0.0320
  565.0000      0.0318
  566.0000      0.0317
  567.0000      0.0315
  568.0000      0.0315
  569.0000      0.0315
  570.0000      0.0315
  571.0000      0.0314
  572.0000      0.0313
  573.0000      0.0313
  574.0000      0.0313
  575.0000      0.0312
  576.0000      0.0312
  577.0000      0.0311
  578.0000      0.0310
  579.0000      0.0307
  580.0000      0.0306
  581.0000      0.0304
  582.0000      0.0303
  583.0000      0.0303
  584.0000      0.0302
  585.0000      0.0302
  586.0000      0.0302
  587.0000      0.0302
  588.0000      0.0302
  589.0000      0.0301
  590.0000      0.0300
  591.0000      0.0300
  592.0000      0.0300
  593.0000      0.0299
  594.0000      0.0299
  595.0000      0.0300
  596.0000      0.0300
  597.0000      0.0301
  598.0000      0.0301
  599.0000      0.0301
  600.0000      0.0301
  601.0000      0.0301
  602.0000      0.0302
  603.0000      0.0303
  604.0000      0.0303
  605.0000      0.0302
  606.0000      0.0302
  607.0000      0.0302
  608.0000      0.0300
  609.0000      0.0299
  610.0000      0.0299
  611.0000      0.0299
  612.0000      0.0299
  613.0000      0.0298
  614.0000      0.0297
  615.0000      0.0297
  616.0000      0.0296
  617.0000      0.0295
  618.0000      0.0294
  619.0000      0.0292
  620.0000      0.0291
  621.0000      0.0290
  622.0000      0.0289
  623.0000      0.0288
  624.0000      0.0288
  625.0000      0.0287
  626.0000      0.0287
  627.0000      0.0287
  628.0000      0.0287
  629.0000      0.0286
  630.0000      0.0286
  631.0000      0.0285
  632.0000      0.0286
  633.0000      0.0286
  634.0000      0.0286
  635.0000      0.0286
  636.0000      0.0287
  637.0000      0.0288
  638.0000      0.0288
  639.0000      0.0288
  640.0000      0.0288
  641.0000      0.0288
  642.0000      0.0287
  643.0000      0.0286
  644.0000      0.0286
  645.0000      0.0285
  646.0000      0.0284
  647.0000      0.0282
  648.0000      0.0280
  649.0000      0.0279
  650.0000      0.0278
  651.0000      0.0277
  652.0000      0.0277
  653.0000      0.0276
  654.0000      0.0276
  655.0000      0.0275
  656.0000      0.0274
  657.0000      0.0273
  658.0000      0.0272
  659.0000      0.0271
  660.0000      0.0270
  661.0000      0.0269
  662.0000      0.0269
  663.0000      0.0268
  664.0000      0.0268
  665.0000      0.0268
  666.0000      0.0269
  667.0000      0.0270
  668.0000      0.0271
  669.0000      0.0272
  670.0000      0.0272
  671.0000      0.0274
  672.0000      0.0274
  673.0000      0.0275
  674.0000      0.0276
  675.0000      0.0275
  676.0000      0.0276
  677.0000      0.0277
  678.0000      0.0276
  679.0000      0.0276
  680.0000      0.0276
  681.0000      0.0276
  682.0000      0.0275
  683.0000      0.0275
  684.0000      0.0273
  685.0000      0.0272
  686.0000      0.0271
  687.0000      0.0269
  688.0000      0.0268
  689.0000      0.0267
  690.0000      0.0265
  691.0000      0.0263
  692.0000      0.0262
  693.0000      0.0259
  694.0000      0.0257
  695.0000      0.0255
  696.0000      0.0253
  697.0000      0.0251
  698.0000      0.0249
  699.0000      0.0248
  700.0000      0.0247
  701.0000      0.0245
  702.0000      0.0243
  703.0000      0.0242
  704.0000      0.0240
  705.0000      0.0239
  706.0000      0.0237
  707.0000      0.0235
  708.0000      0.0233
  709.0000      0.0232
  710.0000      0.0231
  711.0000      0.0231
  712.0000      0.0230
  713.0000      0.0229
  714.0000      0.0229
  715.0000      0.0228
  716.0000      0.0227
  717.0000      0.0227
  718.0000      0.0227
  719.0000      0.0228
  720.0000      0.0228
  721.0000      0.0227
  722.0000      0.0228
  723.0000      0.0228
  724.0000      0.0228
  725.0000      0.0227
  726.0000      0.0228
  727.0000      0.0229
  728.0000      0.0229
  729.0000      0.0229
  730.0000      0.0228
  731.0000      0.0227
  732.0000      0.0227
  733.0000      0.0227
  734.0000      0.0228
  735.0000      0.0229
  736.0000      0.0222
  737.0000      0.0221
  738.0000      0.0219
  739.0000      0.0218
  740.0000      0.0217
  741.0000      0.0217
  742.0000      0.0217
  743.0000      0.0216
  744.0000      0.0216
  745.0000      0.0215
  746.0000      0.0215
  747.0000      0.0214
  748.0000      0.0214
  749.0000      0.0215
  750.0000      0.0215
  751.0000      0.0215
  752.0000      0.0216
  753.0000      0.0216
  754.0000      0.0217
  755.0000      0.0217
  756.0000      0.0218
  757.0000      0.0219
  758.0000      0.0219
  759.0000      0.0219
  760.0000      0.0219
  761.0000      0.0219
  762.0000      0.0220
  763.0000      0.0220
  764.0000      0.0221
  765.0000      0.0221
  766.0000      0.0221
  767.0000      0.0222
  768.0000      0.0221
  769.0000      0.0221
  770.0000      0.0221
  771.0000      0.0220
  772.0000      0.0220
  773.0000      0.0219
  774.0000      0.0218
  775.0000      0.0217
  776.0000      0.0216
  777.0000      0.0215
  778.0000      0.0215
  779.0000      0.0214
  780.0000      0.0212
  781.0000      0.0210
  782.0000      0.0209
  783.0000      0.0208
  784.0000      0.0206
  785.0000      0.0205
  786.0000      0.0203
  787.0000      0.0203
  788.0000      0.0202
  789.0000      0.0201
  790.0000      0.0201
  791.0000      0.0201
  792.0000      0.0200
  793.0000      0.0200
  794.0000      0.0199
  795.0000      0.0199
  796.0000      0.0198
  797.0000      0.0198
  798.0000      0.0197
  799.0000      0.0197
  800.0000      0.0195
