Start Wavelength:    200.0000
End Wavelength:    800.0000
Read Mode:  ABS
Read Average:      0.1000
Nanometer Interval:      1.0000
Time:      0.0000

  200.0000      0.7820
  201.0000      0.7013
  202.0000      0.6641
  203.0000      0.6307
  204.0000      0.5981
  205.0000      0.5752
  206.0000      0.5556
  207.0000      0.5375
  208.0000      0.5214
  209.0000      0.5060
  210.0000      0.4931
  211.0000      0.4806
  212.0000      0.4698
  213.0000      0.4577
  214.0000      0.4486
  215.0000      0.4397
  216.0000      0.4314
  217.0000      0.4221
  218.0000      0.4147
  219.0000      0.4079
  220.0000      0.4009
  221.0000      0.3934
  222.0000      0.3878
  223.0000      0.3810
  224.0000      0.3757
  225.0000      0.3697
  226.0000      0.3641
  227.0000      0.3590
  228.0000      0.3535
  229.0000      0.3477
  230.0000      0.3427
  231.0000      0.3378
  232.0000      0.3326
  233.0000      0.3276
  234.0000      0.3234
  235.0000      0.3191
  236.0000      0.3151
  237.0000      0.3110
  238.0000      0.3075
  239.0000      0.3044
  240.0000      0.3010
  241.0000      0.2982
  242.0000      0.2952
  243.0000      0.2926
  244.0000      0.2899
  245.0000      0.2875
  246.0000      0.2858
  247.0000      0.2826
  248.0000      0.2809
  249.0000      0.2793
  250.0000      0.2773
  251.0000      0.2758
  252.0000      0.2741
  253.0000      0.2721
  254.0000      0.2710
  255.0000      0.2693
  256.0000      0.2677
  257.0000      0.2659
  258.0000      0.2642
  259.0000      0.2629
  260.0000      0.2607
  261.0000      0.2593
  262.0000      0.2573
  263.0000      0.2550
  264.0000      0.2535
  265.0000      0.2510
  266.0000      0.2495
  267.0000      0.2470
  268.0000      0.2447
  269.0000      0.2428
  270.0000      0.2402
  271.0000      0.2383
  272.0000      0.2354
  273.0000      0.2329
  274.0000      0.2305
  275.0000      0.2283
  276.0000      0.2259
  277.0000      0.2223
  278.0000      0.2201
  279.0000      0.2175
  280.0000      0.2146
  281.0000      0.2119
  282.0000      0.2091
  283.0000      0.2057
  284.0000      0.2033
  285.0000      0.2012
  286.0000      0.1983
  287.0000      0.1960
  288.0000      0.1930
  289.0000      0.1907
  290.0000      0.1878
  291.0000      0.1857
  292.0000      0.1832
  293.0000      0.1808
  294.0000      0.1790
  295.0000      0.1759
  296.0000      0.1735
  297.0000      0.1712
  298.0000      0.1692
  299.0000      0.1668
  300.0000      0.1651
  301.0000      0.1629
  302.0000      0.1611
  303.0000      0.1586
  304.0000      0.1569
  305.0000      0.1555
  306.0000      0.1533
  307.0000      0.1523
  308.0000      0.1504
  309.0000      0.1483
  310.0000      0.1474
  311.0000      0.1455
  312.0000      0.1443
  313.0000      0.1429
  314.0000      0.1420
  315.0000      0.1401
  316.0000      0.1392
  317.0000      0.1377
  318.0000      0.1363
  319.0000      0.1361
  320.0000      0.1345
  321.0000      0.1346
  322.0000      0.1347
  323.0000      0.1331
  324.0000      0.1322
  325.0000      0.1311
  326.0000      0.1306
  327.0000      0.1290
  328.0000      0.1278
  329.0000      0.1267
  330.0000      0.1260
  331.0000      0.1252
  332.0000      0.1245
  333.0000      0.1227
  334.0000      0.1229
  335.0000      0.1217
  336.0000      0.1211
  337.0000      0.1203
  338.0000      0.1192
  339.0000      0.1186
  340.0000      0.1179
  341.0000      0.1175
  342.0000      0.1165
  343.0000      0.1156
  344.0000      0.1152
  345.0000      0.1148
  346.0000      0.1138
  347.0000      0.1131
  348.0000      0.1126
  349.0000      0.1121
  350.0000      0.1113
  351.0000      0.1109
  352.0000      0.1103
  353.0000      0.1097
  354.0000      0.1091
  355.0000      0.1084
  356.0000      0.1079
  357.0000      0.1058
  358.0000      0.1068
  359.0000      0.1063
  360.0000      0.1062
  361.0000      0.1047
  362.0000      0.1051
  363.0000      0.1035
  364.0000      0.1032
  365.0000      0.1038
  366.0000      0.1017
  367.0000      0.1008
  368.0000      0.0998
  369.0000      0.1007
  370.0000      0.1012
  371.0000      0.1000
  372.0000      0.1002
  373.0000      0.0995
  374.0000      0.0983
  375.0000      0.0983
  376.0000      0.0982
  377.0000      0.0978
  378.0000      0.0974
  379.0000      0.0965
  380.0000      0.0962
  381.0000      0.0971
  382.0000      0.0964
  383.0000      0.0950
  384.0000      0.0951
  385.0000      0.0951
  386.0000      0.0942
  387.0000      0.0939
  388.0000      0.0939
  389.0000      0.0933
  390.0000      0.0932
  391.0000      0.0925
  392.0000      0.0925
  393.0000      0.0917
  394.0000      0.0915
  395.0000      0.0912
  396.0000      0.0909
  397.0000      0.0909
  398.0000      0.0902
  399.0000      0.0902
  400.0000      0.0900
  401.0000      0.0899
  402.0000      0.0896
  403.0000      0.0889
  404.0000      0.0882
  405.0000      0.0889
  406.0000      0.0882
  407.0000      0.0881
  408.0000      0.0878
  409.0000      0.0876
  410.0000      0.0869
  411.0000      0.0867
  412.0000      0.0863
  413.0000      0.0865
  414.0000      0.0858
  415.0000      0.0856
  416.0000      0.0858
  417.0000      0.0856
  418.0000      0.0851
  419.0000      0.0848
  420.0000      0.0845
  421.0000      0.0841
  422.0000      0.0837
  423.0000      0.0832
  424.0000      0.0829
  425.0000      0.0825
  426.0000      0.0820
  427.0000      0.0816
  428.0000      0.0813
  429.0000      0.0808
  430.0000      0.0804
  431.0000      0.0802
  432.0000      0.0798
  433.0000      0.0795
  434.0000      0.0791
  435.0000      0.0786
  436.0000      0.0784
  437.0000      0.0779
  438.0000      0.0775
  439.0000      0.0772
  440.0000      0.0769
  441.0000      0.0764
  442.0000      0.0761
  443.0000      0.0756
  444.0000      0.0753
  445.0000      0.0748
  446.0000      0.0745
  447.0000      0.0740
  448.0000      0.0736
  449.0000      0.0732
  450.0000      0.0727
  451.0000      0.0725
  452.0000      0.0720
  453.0000      0.0716
  454.0000      0.0713
  455.0000      0.0710
  456.0000      0.0707
  457.0000      0.0706
  458.0000      0.0703
  459.0000      0.0700
  460.0000      0.0699
  461.0000      0.0698
  462.0000      0.0696
  463.0000      0.0694
  464.0000      0.0693
  465.0000      0.0692
  466.0000      0.0690
  467.0000      0.0689
  468.0000      0.0687
  469.0000      0.0684
  470.0000      0.0680
  471.0000      0.0677
  472.0000      0.0673
  473.0000      0.0670
  474.0000      0.0666
  475.0000      0.0664
  476.0000      0.0661
  477.0000      0.0659
  478.0000      0.0656
  479.0000      0.0654
  480.0000      0.0652
  481.0000      0.0649
  482.0000      0.0646
  483.0000      0.0644
  484.0000      0.0642
  485.0000      0.0640
  486.0000      0.0637
  487.0000      0.0635
  488.0000      0.0633
  489.0000      0.0631
  490.0000      0.0630
  491.0000      0.0627
  492.0000      0.0626
  493.0000      0.0624
  494.0000      0.0622
  495.0000      0.0619
  496.0000      0.0617
  497.0000      0.0614
  498.0000      0.0612
  499.0000      0.0610
  500.0000      0.0608
  501.0000      0.0606
  502.0000      0.0603
  503.0000      0.0602
  504.0000      0.0600
  505.0000      0.0598
  506.0000      0.0596
  507.0000      0.0593
  508.0000      0.0591
  509.0000      0.0589
  510.0000      0.0587
  511.0000      0.0585
  512.0000      0.0582
  513.0000      0.0580
  514.0000      0.0578
  515.0000      0.0577
  516.0000      0.0575
  517.0000      0.0573
  518.0000      0.0572
  519.0000      0.0571
  520.0000      0.0570
  521.0000      0.0569
  522.0000      0.0569
  523.0000      0.0568
  524.0000      0.0567
  525.0000      0.0566
  526.0000      0.0566
  527.0000      0.0565
  528.0000      0.0564
  529.0000      0.0564
  530.0000      0.0563
  531.0000      0.0563
  532.0000      0.0562
  533.0000      0.0561
  534.0000      0.0561
  535.0000      0.0561
  536.0000      0.0561
  537.0000      0.0560
  538.0000      0.0560
  539.0000      0.0558
  540.0000      0.0554
  541.0000      0.0548
  542.0000      0.0542
  543.0000      0.0539
  544.0000      0.0538
  545.0000      0.0536
  546.0000      0.0535
  547.0000      0.0533
  548.0000      0.0530
  549.0000      0.0527
  550.0000      0.0523
  551.0000      0.0519
  552.0000      0.0515
  553.0000      0.0512
  554.0000      0.0511
  555.0000      0.0511
  556.0000      0.0510
  557.0000      0.0513
  558.0000      0.0510
  559.0000      0.0508
  560.0000      0.0506
  561.0000      0.0504
  562.0000      0.0502
  563.0000      0.0500
  564.0000      0.0498
  565.0000      0.0496
  566.0000      0.0494
  567.0000      0.0492
  568.0000      0.0490
  569.0000      0.0488
  570.0000      0.0486
  571.0000      0.0484
  572.0000      0.0481
  573.0000      0.0477
  574.0000      0.0473
  575.0000      0.0470
  576.0000      0.0469
  577.0000      0.0468
  578.0000      0.0466
  579.0000      0.0464
  580.0000      0.0463
  581.0000      0.0461
  582.0000      0.0459
  583.0000      0.0458
  584.0000      0.0457
  585.0000      0.0456
  586.0000      0.0455
  587.0000      0.0454
  588.0000      0.0454
  589.0000      0.0454
  590.0000      0.0454
  591.0000      0.0454
  592.0000      0.0454
  593.0000      0.0454
  594.0000      0.0453
  595.0000      0.0452
  596.0000      0.0451
  597.0000      0.0450
  598.0000      0.0449
  599.0000      0.0448
  600.0000      0.0447
  601.0000      0.0446
  602.0000      0.0444
  603.0000      0.0443
  604.0000      0.0441
  605.0000      0.0440
  606.0000      0.0439
  607.0000      0.0437
  608.0000      0.0435
  609.0000      0.0434
  610.0000      0.0433
  611.0000      0.0432
  612.0000      0.0431
  613.0000      0.0430
  614.0000      0.0429
  615.0000      0.0427
  616.0000      0.0426
  617.0000      0.0424
  618.0000      0.0423
  619.0000      0.0423
  620.0000      0.0422
  621.0000      0.0422
  622.0000      0.0421
  623.0000      0.0421
  624.0000      0.0421
  625.0000      0.0421
  626.0000      0.0420
  627.0000      0.0420
  628.0000      0.0419
  629.0000      0.0419
  630.0000      0.0419
  631.0000      0.0419
  632.0000      0.0419
  633.0000      0.0420
  634.0000      0.0420
  635.0000      0.0420
  636.0000      0.0419
  637.0000      0.0418
  638.0000      0.0417
  639.0000      0.0416
  640.0000      0.0415
  641.0000      0.0415
  642.0000      0.0414
  643.0000      0.0414
  644.0000      0.0414
  645.0000      0.0413
  646.0000      0.0412
  647.0000      0.0412
  648.0000      0.0410
  649.0000      0.0408
  650.0000      0.0407
  651.0000      0.0406
  652.0000      0.0403
  653.0000      0.0401
  654.0000      0.0399
  655.0000      0.0395
  656.0000      0.0391
  657.0000      0.0388
  658.0000      0.0386
  659.0000      0.0383
  660.0000      0.0382
  661.0000      0.0380
  662.0000      0.0380
  663.0000      0.0379
  664.0000      0.0379
  665.0000      0.0378
  666.0000      0.0379
  667.0000      0.0378
  668.0000      0.0378
  669.0000      0.0378
  670.0000      0.0377
  671.0000      0.0377
  672.0000      0.0377
  673.0000      0.0376
  674.0000      0.0376
  675.0000      0.0376
  676.0000      0.0375
  677.0000      0.0374
  678.0000      0.0374
  679.0000      0.0374
  680.0000      0.0373
  681.0000      0.0373
  682.0000      0.0372
  683.0000      0.0371
  684.0000      0.0371
  685.0000      0.0371
  686.0000      0.0370
  687.0000      0.0369
  688.0000      0.0368
  689.0000      0.0368
  690.0000      0.0367
  691.0000      0.0366
  692.0000      0.0366
  693.0000      0.0365
  694.0000      0.0365
  695.0000      0.0364
  696.0000      0.0364
  697.0000      0.0363
  698.0000      0.0362
  699.0000      0.0361
  700.0000      0.0361
  701.0000      0.0360
  702.0000      0.0360
  703.0000      0.0359
  704.0000      0.0358
  705.0000      0.0357
  706.0000      0.0356
  707.0000      0.0355
  708.0000      0.0354
  709.0000      0.0353
  710.0000      0.0353
  711.0000      0.0351
  712.0000      0.0349
  713.0000      0.0348
  714.0000      0.0347
  715.0000      0.0345
  716.0000      0.0344
  717.0000      0.0343
  718.0000      0.0341
  719.0000      0.0340
  720.0000      0.0339
  721.0000      0.0338
  722.0000      0.0337
  723.0000      0.0336
  724.0000      0.0335
  725.0000      0.0334
  726.0000      0.0332
  727.0000      0.0331
  728.0000      0.0330
  729.0000      0.0328
  730.0000      0.0327
  731.0000      0.0325
  732.0000      0.0324
  733.0000      0.0323
  734.0000      0.0322
  735.0000      0.0322
  736.0000      0.0319
  737.0000      0.0317
  738.0000      0.0316
  739.0000      0.0316
  740.0000      0.0315
  741.0000      0.0316
  742.0000      0.0316
  743.0000      0.0317
  744.0000      0.0317
  745.0000      0.0316
  746.0000      0.0315
  747.0000      0.0315
  748.0000      0.0314
  749.0000      0.0313
  750.0000      0.0312
  751.0000      0.0311
  752.0000      0.0309
  753.0000      0.0308
  754.0000      0.0307
  755.0000      0.0306
  756.0000      0.0306
  757.0000      0.0305
  758.0000      0.0305
  759.0000      0.0305
  760.0000      0.0305
  761.0000      0.0305
  762.0000      0.0305
  763.0000      0.0304
  764.0000      0.0304
  765.0000      0.0304
  766.0000      0.0304
  767.0000      0.0304
  768.0000      0.0304
  769.0000      0.0303
  770.0000      0.0303
  771.0000      0.0302
  772.0000      0.0302
  773.0000      0.0302
  774.0000      0.0301
  775.0000      0.0301
  776.0000      0.0300
  777.0000      0.0300
  778.0000      0.0300
  779.0000      0.0300
  780.0000      0.0300
  781.0000      0.0300
  782.0000      0.0300
  783.0000      0.0299
  784.0000      0.0299
  785.0000      0.0298
  786.0000      0.0298
  787.0000      0.0297
  788.0000      0.0297
  789.0000      0.0296
  790.0000      0.0296
  791.0000      0.0296
  792.0000      0.0295
  793.0000      0.0295
  794.0000      0.0295
  795.0000      0.0295
  796.0000      0.0294
  797.0000      0.0294
  798.0000      0.0292
  799.0000      0.0292
  800.0000      0.0290
