Start Wavelength:    200.0000
End Wavelength:    800.0000
Read Mode:  ABS
Read Average:      0.1000
Nanometer Interval:      1.0000
Time:      0.0000

  200.0000      0.7812
  201.0000      0.7001
  202.0000      0.6585
  203.0000      0.6285
  204.0000      0.5959
  205.0000      0.5713
  206.0000      0.5539
  207.0000      0.5375
  208.0000      0.5209
  209.0000      0.5056
  210.0000      0.4931
  211.0000      0.4827
  212.0000      0.4726
  213.0000      0.4621
  214.0000      0.4527
  215.0000      0.4439
  216.0000      0.4359
  217.0000      0.4280
  218.0000      0.4207
  219.0000      0.4141
  220.0000      0.4070
  221.0000      0.3998
  222.0000      0.3942
  223.0000      0.3883
  224.0000      0.3823
  225.0000      0.3769
  226.0000      0.3713
  227.0000      0.3664
  228.0000      0.3613
  229.0000      0.3559
  230.0000      0.3508
  231.0000      0.3461
  232.0000      0.3414
  233.0000      0.3361
  234.0000      0.3321
  235.0000      0.3277
  236.0000      0.3242
  237.0000      0.3202
  238.0000      0.3165
  239.0000      0.3132
  240.0000      0.3099
  241.0000      0.3067
  242.0000      0.3040
  243.0000      0.3020
  244.0000      0.2990
  245.0000      0.2965
  246.0000      0.2945
  247.0000      0.2916
  248.0000      0.2897
  249.0000      0.2878
  250.0000      0.2856
  251.0000      0.2837
  252.0000      0.2820
  253.0000      0.2797
  254.0000      0.2785
  255.0000      0.2763
  256.0000      0.2741
  257.0000      0.2726
  258.0000      0.2703
  259.0000      0.2682
  260.0000      0.2667
  261.0000      0.2649
  262.0000      0.2629
  263.0000      0.2604
  264.0000      0.2586
  265.0000      0.2561
  266.0000      0.2545
  267.0000      0.2522
  268.0000      0.2498
  269.0000      0.2478
  270.0000      0.2454
  271.0000      0.2425
  272.0000      0.2399
  273.0000      0.2379
  274.0000      0.2357
  275.0000      0.2328
  276.0000      0.2306
  277.0000      0.2274
  278.0000      0.2251
  279.0000      0.2220
  280.0000      0.2190
  281.0000      0.2167
  282.0000      0.2142
  283.0000      0.2113
  284.0000      0.2085
  285.0000      0.2061
  286.0000      0.2033
  287.0000      0.2011
  288.0000      0.1980
  289.0000      0.1957
  290.0000      0.1929
  291.0000      0.1904
  292.0000      0.1880
  293.0000      0.1857
  294.0000      0.1834
  295.0000      0.1807
  296.0000      0.1780
  297.0000      0.1766
  298.0000      0.1742
  299.0000      0.1723
  300.0000      0.1710
  301.0000      0.1686
  302.0000      0.1668
  303.0000      0.1647
  304.0000      0.1633
  305.0000      0.1620
  306.0000      0.1603
  307.0000      0.1595
  308.0000      0.1583
  309.0000      0.1559
  310.0000      0.1550
  311.0000      0.1535
  312.0000      0.1520
  313.0000      0.1508
  314.0000      0.1488
  315.0000      0.1472
  316.0000      0.1467
  317.0000      0.1452
  318.0000      0.1425
  319.0000      0.1422
  320.0000      0.1411
  321.0000      0.1411
  322.0000      0.1369
  323.0000      0.1359
  324.0000      0.1347
  325.0000      0.1337
  326.0000      0.1328
  327.0000      0.1316
  328.0000      0.1310
  329.0000      0.1296
  330.0000      0.1289
  331.0000      0.1280
  332.0000      0.1274
  333.0000      0.1258
  334.0000      0.1255
  335.0000      0.1245
  336.0000      0.1234
  337.0000      0.1228
  338.0000      0.1218
  339.0000      0.1210
  340.0000      0.1204
  341.0000      0.1192
  342.0000      0.1189
  343.0000      0.1181
  344.0000      0.1172
  345.0000      0.1168
  346.0000      0.1159
  347.0000      0.1151
  348.0000      0.1147
  349.0000      0.1143
  350.0000      0.1134
  351.0000      0.1132
  352.0000      0.1126
  353.0000      0.1118
  354.0000      0.1118
  355.0000      0.1109
  356.0000      0.1107
  357.0000      0.1112
  358.0000      0.1111
  359.0000      0.1110
  360.0000      0.1103
  361.0000      0.1108
  362.0000      0.1097
  363.0000      0.1094
  364.0000      0.1085
  365.0000      0.1092
  366.0000      0.1078
  367.0000      0.1073
  368.0000      0.1060
  369.0000      0.1069
  370.0000      0.1069
  371.0000      0.1058
  372.0000      0.1055
  373.0000      0.1057
  374.0000      0.1049
  375.0000      0.1043
  376.0000      0.1043
  377.0000      0.1040
  378.0000      0.1035
  379.0000      0.1032
  380.0000      0.1031
  381.0000      0.1027
  382.0000      0.1023
  383.0000      0.1018
  384.0000      0.1016
  385.0000      0.1011
  386.0000      0.1002
  387.0000      0.1009
  388.0000      0.1004
  389.0000      0.1000
  390.0000      0.0995
  391.0000      0.0993
  392.0000      0.0988
  393.0000      0.0982
  394.0000      0.0982
  395.0000      0.0979
  396.0000      0.0973
  397.0000      0.0976
  398.0000      0.0973
  399.0000      0.0973
  400.0000      0.0968
  401.0000      0.0962
  402.0000      0.0962
  403.0000      0.0956
  404.0000      0.0956
  405.0000      0.0954
  406.0000      0.0953
  407.0000      0.0953
  408.0000      0.0946
  409.0000      0.0941
  410.0000      0.0940
  411.0000      0.0936
  412.0000      0.0931
  413.0000      0.0931
  414.0000      0.0928
  415.0000      0.0925
  416.0000      0.0924
  417.0000      0.0919
  418.0000      0.0913
  419.0000      0.0908
  420.0000      0.0903
  421.0000      0.0897
  422.0000      0.0892
  423.0000      0.0885
  424.0000      0.0880
  425.0000      0.0875
  426.0000      0.0869
  427.0000      0.0868
  428.0000      0.0862
  429.0000      0.0856
  430.0000      0.0851
  431.0000      0.0847
  432.0000      0.0841
  433.0000      0.0837
  434.0000      0.0833
  435.0000      0.0828
  436.0000      0.0823
  437.0000      0.0819
  438.0000      0.0814
  439.0000      0.0810
  440.0000      0.0804
  441.0000      0.0800
  442.0000      0.0797
  443.0000      0.0794
  444.0000      0.0793
  445.0000      0.0790
  446.0000      0.0789
  447.0000      0.0786
  448.0000      0.0783
  449.0000      0.0779
  450.0000      0.0775
  451.0000      0.0772
  452.0000      0.0769
  453.0000      0.0766
  454.0000      0.0762
  455.0000      0.0759
  456.0000      0.0755
  457.0000      0.0752
  458.0000      0.0749
  459.0000      0.0745
  460.0000      0.0742
  461.0000      0.0740
  462.0000      0.0738
  463.0000      0.0736
  464.0000      0.0733
  465.0000      0.0730
  466.0000      0.0727
  467.0000      0.0725
  468.0000      0.0722
  469.0000      0.0720
  470.0000      0.0716
  471.0000      0.0714
  472.0000      0.0710
  473.0000      0.0707
  474.0000      0.0703
  475.0000      0.0699
  476.0000      0.0696
  477.0000      0.0693
  478.0000      0.0690
  479.0000      0.0688
  480.0000      0.0684
  481.0000      0.0682
  482.0000      0.0681
  483.0000      0.0681
  484.0000      0.0679
  485.0000      0.0678
  486.0000      0.0676
  487.0000      0.0674
  488.0000      0.0672
  489.0000      0.0671
  490.0000      0.0669
  491.0000      0.0668
  492.0000      0.0665
  493.0000      0.0663
  494.0000      0.0660
  495.0000      0.0658
  496.0000      0.0656
  497.0000      0.0655
  498.0000      0.0652
  499.0000      0.0651
  500.0000      0.0648
  501.0000      0.0646
  502.0000      0.0644
  503.0000      0.0642
  504.0000      0.0639
  505.0000      0.0638
  506.0000      0.0637
  507.0000      0.0635
  508.0000      0.0633
  509.0000      0.0631
  510.0000      0.0629
  511.0000      0.0627
  512.0000      0.0625
  513.0000      0.0623
  514.0000      0.0621
  515.0000      0.0618
  516.0000      0.0616
  517.0000      0.0613
  518.0000      0.0611
  519.0000      0.0609
  520.0000      0.0608
  521.0000      0.0606
  522.0000      0.0604
  523.0000      0.0602
  524.0000      0.0599
  525.0000      0.0594
  526.0000      0.0589
  527.0000      0.0588
  528.0000      0.0587
  529.0000      0.0589
  530.0000      0.0589
  531.0000      0.0590
  532.0000      0.0591
  533.0000      0.0593
  534.0000      0.0596
  535.0000      0.0599
  536.0000      0.0601
  537.0000      0.0602
  538.0000      0.0603
  539.0000      0.0605
  540.0000      0.0606
  541.0000      0.0607
  542.0000      0.0609
  543.0000      0.0610
  544.0000      0.0612
  545.0000      0.0614
  546.0000      0.0615
  547.0000      0.0616
  548.0000      0.0618
  549.0000      0.0619
  550.0000      0.0619
  551.0000      0.0619
  552.0000      0.0620
  553.0000      0.0621
  554.0000      0.0622
  555.0000      0.0623
  556.0000      0.0624
  557.0000      0.0606
  558.0000      0.0602
  559.0000      0.0599
  560.0000      0.0596
  561.0000      0.0592
  562.0000      0.0588
  563.0000      0.0582
  564.0000      0.0575
  565.0000      0.0567
  566.0000      0.0557
  567.0000      0.0546
  568.0000      0.0533
  569.0000      0.0522
  570.0000      0.0515
  571.0000      0.0512
  572.0000      0.0511
  573.0000      0.0515
  574.0000      0.0522
  575.0000      0.0528
  576.0000      0.0534
  577.0000      0.0538
  578.0000      0.0539
  579.0000      0.0538
  580.0000      0.0538
  581.0000      0.0538
  582.0000      0.0538
  583.0000      0.0539
  584.0000      0.0540
  585.0000      0.0541
  586.0000      0.0541
  587.0000      0.0540
  588.0000      0.0538
  589.0000      0.0536
  590.0000      0.0535
  591.0000      0.0533
  592.0000      0.0530
  593.0000      0.0527
  594.0000      0.0523
  595.0000      0.0520
  596.0000      0.0516
  597.0000      0.0512
  598.0000      0.0508
  599.0000      0.0505
  600.0000      0.0501
  601.0000      0.0498
  602.0000      0.0494
  603.0000      0.0491
  604.0000      0.0488
  605.0000      0.0485
  606.0000      0.0481
  607.0000      0.0476
  608.0000      0.0470
  609.0000      0.0467
  610.0000      0.0465
  611.0000      0.0463
  612.0000      0.0460
  613.0000      0.0457
  614.0000      0.0454
  615.0000      0.0453
  616.0000      0.0452
  617.0000      0.0450
  618.0000      0.0448
  619.0000      0.0447
  620.0000      0.0445
  621.0000      0.0445
  622.0000      0.0445
  623.0000      0.0445
  624.0000      0.0443
  625.0000      0.0442
  626.0000      0.0442
  627.0000      0.0440
  628.0000      0.0439
  629.0000      0.0439
  630.0000      0.0439
  631.0000      0.0438
  632.0000      0.0437
  633.0000      0.0437
  634.0000      0.0436
  635.0000      0.0436
  636.0000      0.0436
  637.0000      0.0436
  638.0000      0.0436
  639.0000      0.0436
  640.0000      0.0437
  641.0000      0.0437
  642.0000      0.0436
  643.0000      0.0436
  644.0000      0.0436
  645.0000      0.0436
  646.0000      0.0436
  647.0000      0.0435
  648.0000      0.0433
  649.0000      0.0431
  650.0000      0.0430
  651.0000      0.0428
  652.0000      0.0426
  653.0000      0.0425
  654.0000      0.0424
  655.0000      0.0423
  656.0000      0.0422
  657.0000      0.0421
  658.0000      0.0420
  659.0000      0.0418
  660.0000      0.0417
  661.0000      0.0416
  662.0000      0.0416
  663.0000      0.0416
  664.0000      0.0415
  665.0000      0.0415
  666.0000      0.0415
  667.0000      0.0413
  668.0000      0.0413
  669.0000      0.0412
  670.0000      0.0412
  671.0000      0.0411
  672.0000      0.0410
  673.0000      0.0411
  674.0000      0.0411
  675.0000      0.0411
  676.0000      0.0411
  677.0000      0.0411
  678.0000      0.0410
  679.0000      0.0411
  680.0000      0.0410
  681.0000      0.0409
  682.0000      0.0407
  683.0000      0.0406
  684.0000      0.0404
  685.0000      0.0403
  686.0000      0.0401
  687.0000      0.0398
  688.0000      0.0396
  689.0000      0.0394
  690.0000      0.0392
  691.0000      0.0390
  692.0000      0.0389
  693.0000      0.0389
  694.0000      0.0388
  695.0000      0.0389
  696.0000      0.0389
  697.0000      0.0388
  698.0000      0.0389
  699.0000      0.0389
  700.0000      0.0388
  701.0000      0.0388
  702.0000      0.0387
  703.0000      0.0386
  704.0000      0.0385
  705.0000      0.0384
  706.0000      0.0383
  707.0000      0.0383
  708.0000      0.0382
  709.0000      0.0381
  710.0000      0.0379
  711.0000      0.0377
  712.0000      0.0376
  713.0000      0.0374
  714.0000      0.0373
  715.0000      0.0371
  716.0000      0.0370
  717.0000      0.0368
  718.0000      0.0367
  719.0000      0.0366
  720.0000      0.0364
  721.0000      0.0362
  722.0000      0.0361
  723.0000      0.0359
  724.0000      0.0357
  725.0000      0.0355
  726.0000      0.0355
  727.0000      0.0355
  728.0000      0.0355
  729.0000      0.0355
  730.0000      0.0355
  731.0000      0.0354
  732.0000      0.0354
  733.0000      0.0354
  734.0000      0.0354
  735.0000      0.0354
  736.0000      0.0359
  737.0000      0.0357
  738.0000      0.0355
  739.0000      0.0355
  740.0000      0.0354
  741.0000      0.0354
  742.0000      0.0353
  743.0000      0.0352
  744.0000      0.0351
  745.0000      0.0350
  746.0000      0.0349
  747.0000      0.0350
  748.0000      0.0350
  749.0000      0.0349
  750.0000      0.0348
  751.0000      0.0347
  752.0000      0.0347
  753.0000      0.0347
  754.0000      0.0346
  755.0000      0.0346
  756.0000      0.0346
  757.0000      0.0346
  758.0000      0.0347
  759.0000      0.0347
  760.0000      0.0347
  761.0000      0.0347
  762.0000      0.0347
  763.0000      0.0347
  764.0000      0.0347
  765.0000      0.0347
  766.0000      0.0347
  767.0000      0.0348
  768.0000      0.0348
  769.0000      0.0348
  770.0000      0.0347
  771.0000      0.0347
  772.0000      0.0347
  773.0000      0.0346
  774.0000      0.0344
  775.0000      0.0341
  776.0000      0.0338
  777.0000      0.0335
  778.0000      0.0333
  779.0000      0.0333
  780.0000      0.0332
  781.0000      0.0331
  782.0000      0.0330
  783.0000      0.0328
  784.0000      0.0326
  785.0000      0.0323
  786.0000      0.0320
  787.0000      0.0317
  788.0000      0.0316
  789.0000      0.0313
  790.0000      0.0312
  791.0000      0.0311
  792.0000      0.0309
  793.0000      0.0308
  794.0000      0.0307
  795.0000      0.0305
  796.0000      0.0304
  797.0000      0.0303
  798.0000      0.0301
  799.0000      0.0299
  800.0000      0.0298
