Start Wavelength:    200.0000
End Wavelength:    800.0000
Read Mode:  ABS
Read Average:      0.1000
Nanometer Interval:      1.0000
Time:      0.0000

  200.0000      1.7247
  201.0000      1.2005
  202.0000      0.9702
  203.0000      0.8114
  204.0000      0.6779
  205.0000      0.5968
  206.0000      0.5404
  207.0000      0.4953
  208.0000      0.4621
  209.0000      0.4293
  210.0000      0.4061
  211.0000      0.3869
  212.0000      0.3691
  213.0000      0.3528
  214.0000      0.3414
  215.0000      0.3286
  216.0000      0.3187
  217.0000      0.3087
  218.0000      0.3005
  219.0000      0.2936
  220.0000      0.2867
  221.0000      0.2799
  222.0000      0.2734
  223.0000      0.2680
  224.0000      0.2626
  225.0000      0.2573
  226.0000      0.2517
  227.0000      0.2469
  228.0000      0.2428
  229.0000      0.2367
  230.0000      0.2326
  231.0000      0.2279
  232.0000      0.2229
  233.0000      0.2184
  234.0000      0.2138
  235.0000      0.2101
  236.0000      0.2060
  237.0000      0.2020
  238.0000      0.1989
  239.0000      0.1956
  240.0000      0.1926
  241.0000      0.1898
  242.0000      0.1874
  243.0000      0.1851
  244.0000      0.1830
  245.0000      0.1807
  246.0000      0.1792
  247.0000      0.1777
  248.0000      0.1761
  249.0000      0.1744
  250.0000      0.1739
  251.0000      0.1720
  252.0000      0.1707
  253.0000      0.1702
  254.0000      0.1679
  255.0000      0.1670
  256.0000      0.1658
  257.0000      0.1644
  258.0000      0.1636
  259.0000      0.1620
  260.0000      0.1607
  261.0000      0.1592
  262.0000      0.1576
  263.0000      0.1566
  264.0000      0.1549
  265.0000      0.1536
  266.0000      0.1518
  267.0000      0.1502
  268.0000      0.1491
  269.0000      0.1474
  270.0000      0.1453
  271.0000      0.1439
  272.0000      0.1420
  273.0000      0.1400
  274.0000      0.1383
  275.0000      0.1363
  276.0000      0.1342
  277.0000      0.1325
  278.0000      0.1303
  279.0000      0.1283
  280.0000      0.1273
  281.0000      0.1251
  282.0000      0.1229
  283.0000      0.1219
  284.0000      0.1194
  285.0000      0.1175
  286.0000      0.1163
  287.0000      0.1134
  288.0000      0.1121
  289.0000      0.1100
  290.0000      0.1077
  291.0000      0.1059
  292.0000      0.1042
  293.0000      0.1024
  294.0000      0.1015
  295.0000      0.0996
  296.0000      0.0983
  297.0000      0.0972
  298.0000      0.0954
  299.0000      0.0946
  300.0000      0.0937
  301.0000      0.0915
  302.0000      0.0916
  303.0000      0.0894
  304.0000      0.0884
  305.0000      0.0876
  306.0000      0.0857
  307.0000      0.0851
  308.0000      0.0840
  309.0000      0.0832
  310.0000      0.0823
  311.0000      0.0808
  312.0000      0.0801
  313.0000      0.0789
  314.0000      0.0780
  315.0000      0.0777
  316.0000      0.0771
  317.0000      0.0758
  318.0000      0.0759
  319.0000      0.0747
  320.0000      0.0738
  321.0000      0.0740
  322.0000      0.0710
  323.0000      0.0706
  324.0000      0.0688
  325.0000      0.0688
  326.0000      0.0680
  327.0000      0.0668
  328.0000      0.0669
  329.0000      0.0661
  330.0000      0.0656
  331.0000      0.0652
  332.0000      0.0642
  333.0000      0.0643
  334.0000      0.0640
  335.0000      0.0632
  336.0000      0.0632
  337.0000      0.0629
  338.0000      0.0621
  339.0000      0.0616
  340.0000      0.0614
  341.0000      0.0610
  342.0000      0.0611
  343.0000      0.0603
  344.0000      0.0598
  345.0000      0.0589
  346.0000      0.0589
  347.0000      0.0588
  348.0000      0.0580
  349.0000      0.0575
  350.0000      0.0575
  351.0000      0.0570
  352.0000      0.0568
  353.0000      0.0563
  354.0000      0.0558
  355.0000      0.0557
  356.0000      0.0554
  357.0000      0.0546
  358.0000      0.0545
  359.0000      0.0539
  360.0000      0.0541
  361.0000      0.0539
  362.0000      0.0525
  363.0000      0.0543
  364.0000      0.0507
  365.0000      0.0535
  366.0000      0.0512
  367.0000      0.0519
  368.0000      0.0519
  369.0000      0.0499
  370.0000      0.0509
  371.0000      0.0507
  372.0000      0.0499
  373.0000      0.0501
  374.0000      0.0499
  375.0000      0.0495
  376.0000      0.0500
  377.0000      0.0486
  378.0000      0.0487
  379.0000      0.0489
  380.0000      0.0478
  381.0000      0.0485
  382.0000      0.0472
  383.0000      0.0480
  384.0000      0.0480
  385.0000      0.0469
  386.0000      0.0474
  387.0000      0.0474
  388.0000      0.0469
  389.0000      0.0469
  390.0000      0.0457
  391.0000      0.0467
  392.0000      0.0463
  393.0000      0.0460
  394.0000      0.0461
  395.0000      0.0458
  396.0000      0.0457
  397.0000      0.0457
  398.0000      0.0454
  399.0000      0.0456
  400.0000      0.0456
  401.0000      0.0448
  402.0000      0.0455
  403.0000      0.0450
  404.0000      0.0446
  405.0000      0.0451
  406.0000      0.0445
  407.0000      0.0444
  408.0000      0.0441
  409.0000      0.0441
  410.0000      0.0446
  411.0000      0.0435
  412.0000      0.0438
  413.0000      0.0438
  414.0000      0.0433
  415.0000      0.0435
  416.0000      0.0422
  417.0000      0.0422
  418.0000      0.0417
  419.0000      0.0417
  420.0000      0.0415
  421.0000      0.0413
  422.0000      0.0412
  423.0000      0.0408
  424.0000      0.0408
  425.0000      0.0407
  426.0000      0.0406
  427.0000      0.0403
  428.0000      0.0401
  429.0000      0.0400
  430.0000      0.0398
  431.0000      0.0397
  432.0000      0.0395
  433.0000      0.0395
  434.0000      0.0393
  435.0000      0.0392
  436.0000      0.0391
  437.0000      0.0390
  438.0000      0.0389
  439.0000      0.0387
  440.0000      0.0385
  441.0000      0.0384
  442.0000      0.0383
  443.0000      0.0382
  444.0000      0.0381
  445.0000      0.0381
  446.0000      0.0380
  447.0000      0.0378
  448.0000      0.0377
  449.0000      0.0376
  450.0000      0.0375
  451.0000      0.0374
  452.0000      0.0373
  453.0000      0.0371
  454.0000      0.0371
  455.0000      0.0371
  456.0000      0.0370
  457.0000      0.0369
  458.0000      0.0368
  459.0000      0.0368
  460.0000      0.0368
  461.0000      0.0368
  462.0000      0.0368
  463.0000      0.0369
  464.0000      0.0370
  465.0000      0.0369
  466.0000      0.0371
  467.0000      0.0372
  468.0000      0.0374
  469.0000      0.0376
  470.0000      0.0379
  471.0000      0.0381
  472.0000      0.0383
  473.0000      0.0384
  474.0000      0.0385
  475.0000      0.0386
  476.0000      0.0386
  477.0000      0.0387
  478.0000      0.0389
  479.0000      0.0389
  480.0000      0.0390
  481.0000      0.0391
  482.0000      0.0391
  483.0000      0.0392
  484.0000      0.0392
  485.0000      0.0393
  486.0000      0.0394
  487.0000      0.0396
  488.0000      0.0397
  489.0000      0.0398
  490.0000      0.0398
  491.0000      0.0398
  492.0000      0.0399
  493.0000      0.0399
  494.0000      0.0398
  495.0000      0.0398
  496.0000      0.0397
  497.0000      0.0396
  498.0000      0.0395
  499.0000      0.0393
  500.0000      0.0392
  501.0000      0.0390
  502.0000      0.0388
  503.0000      0.0387
  504.0000      0.0385
  505.0000      0.0385
  506.0000      0.0383
  507.0000      0.0382
  508.0000      0.0379
  509.0000      0.0377
  510.0000      0.0375
  511.0000      0.0372
  512.0000      0.0370
  513.0000      0.0368
  514.0000      0.0368
  515.0000      0.0366
  516.0000      0.0364
  517.0000      0.0362
  518.0000      0.0359
  519.0000      0.0355
  520.0000      0.0351
  521.0000      0.0344
  522.0000      0.0337
  523.0000      0.0333
  524.0000      0.0329
  525.0000      0.0327
  526.0000      0.0325
  527.0000      0.0322
  528.0000      0.0320
  529.0000      0.0319
  530.0000      0.0318
  531.0000      0.0316
  532.0000      0.0315
  533.0000      0.0314
  534.0000      0.0312
  535.0000      0.0312
  536.0000      0.0311
  537.0000      0.0310
  538.0000      0.0310
  539.0000      0.0308
  540.0000      0.0308
  541.0000      0.0308
  542.0000      0.0308
  543.0000      0.0307
  544.0000      0.0307
  545.0000      0.0307
  546.0000      0.0307
  547.0000      0.0307
  548.0000      0.0307
  549.0000      0.0307
  550.0000      0.0307
  551.0000      0.0308
  552.0000      0.0308
  553.0000      0.0308
  554.0000      0.0308
  555.0000      0.0308
  556.0000      0.0307
  557.0000      0.0318
  558.0000      0.0317
  559.0000      0.0316
  560.0000      0.0315
  561.0000      0.0315
  562.0000      0.0314
  563.0000      0.0314
  564.0000      0.0313
  565.0000      0.0312
  566.0000      0.0311
  567.0000      0.0310
  568.0000      0.0309
  569.0000      0.0307
  570.0000      0.0305
  571.0000      0.0304
  572.0000      0.0303
  573.0000      0.0301
  574.0000      0.0300
  575.0000      0.0299
  576.0000      0.0299
  577.0000      0.0299
  578.0000      0.0299
  579.0000      0.0299
  580.0000      0.0299
  581.0000      0.0299
  582.0000      0.0299
  583.0000      0.0299
  584.0000      0.0298
  585.0000      0.0297
  586.0000      0.0297
  587.0000      0.0297
  588.0000      0.0296
  589.0000      0.0296
  590.0000      0.0296
  591.0000      0.0295
  592.0000      0.0295
  593.0000      0.0295
  594.0000      0.0294
  595.0000      0.0293
  596.0000      0.0292
  597.0000      0.0292
  598.0000      0.0291
  599.0000      0.0290
  600.0000      0.0290
  601.0000      0.0289
  602.0000      0.0289
  603.0000      0.0288
  604.0000      0.0288
  605.0000      0.0287
  606.0000      0.0287
  607.0000      0.0286
  608.0000      0.0286
  609.0000      0.0286
  610.0000      0.0286
  611.0000      0.0286
  612.0000      0.0286
  613.0000      0.0286
  614.0000      0.0285
  615.0000      0.0285
  616.0000      0.0285
  617.0000      0.0284
  618.0000      0.0284
  619.0000      0.0283
  620.0000      0.0283
  621.0000      0.0283
  622.0000      0.0283
  623.0000      0.0284
  624.0000      0.0283
  625.0000      0.0283
  626.0000      0.0283
  627.0000      0.0283
  628.0000      0.0282
  629.0000      0.0282
  630.0000      0.0280
  631.0000      0.0280
  632.0000      0.0279
  633.0000      0.0278
  634.0000      0.0277
  635.0000      0.0275
  636.0000      0.0274
  637.0000      0.0274
  638.0000      0.0273
  639.0000      0.0273
  640.0000      0.0272
  641.0000      0.0271
  642.0000      0.0272
  643.0000      0.0271
  644.0000      0.0271
  645.0000      0.0271
  646.0000      0.0271
  647.0000      0.0271
  648.0000      0.0271
  649.0000      0.0271
  650.0000      0.0272
  651.0000      0.0272
  652.0000      0.0272
  653.0000      0.0272
  654.0000      0.0273
  655.0000      0.0273
  656.0000      0.0273
  657.0000      0.0274
  658.0000      0.0275
  659.0000      0.0276
  660.0000      0.0277
  661.0000      0.0278
  662.0000      0.0279
  663.0000      0.0280
  664.0000      0.0281
  665.0000      0.0283
  666.0000      0.0284
  667.0000      0.0285
  668.0000      0.0286
  669.0000      0.0287
  670.0000      0.0288
  671.0000      0.0290
  672.0000      0.0291
  673.0000      0.0291
  674.0000      0.0291
  675.0000      0.0292
  676.0000      0.0293
  677.0000      0.0293
  678.0000      0.0293
  679.0000      0.0292
  680.0000      0.0292
  681.0000      0.0291
  682.0000      0.0291
  683.0000      0.0291
  684.0000      0.0290
  685.0000      0.0289
  686.0000      0.0288
  687.0000      0.0287
  688.0000      0.0286
  689.0000      0.0285
  690.0000      0.0284
  691.0000      0.0282
  692.0000      0.0281
  693.0000      0.0280
  694.0000      0.0280
  695.0000      0.0280
  696.0000      0.0279
  697.0000      0.0278
  698.0000      0.0277
  699.0000      0.0278
  700.0000      0.0277
  701.0000      0.0275
  702.0000      0.0273
  703.0000      0.0273
  704.0000      0.0273
  705.0000      0.0272
  706.0000      0.0271
  707.0000      0.0269
  708.0000      0.0268
  709.0000      0.0268
  710.0000      0.0267
  711.0000      0.0267
  712.0000      0.0264
  713.0000      0.0263
  714.0000      0.0262
  715.0000      0.0261
  716.0000      0.0261
  717.0000      0.0261
  718.0000      0.0260
  719.0000      0.0258
  720.0000      0.0258
  721.0000      0.0258
  722.0000      0.0256
  723.0000      0.0255
  724.0000      0.0254
  725.0000      0.0253
  726.0000      0.0252
  727.0000      0.0251
  728.0000      0.0251
  729.0000      0.0249
  730.0000      0.0249
  731.0000      0.0248
  732.0000      0.0248
  733.0000      0.0248
  734.0000      0.0247
  735.0000      0.0248
  736.0000      0.0248
  737.0000      0.0248
  738.0000      0.0248
  739.0000      0.0247
  740.0000      0.0248
  741.0000      0.0248
  742.0000      0.0248
  743.0000      0.0249
  744.0000      0.0250
  745.0000      0.0249
  746.0000      0.0249
  747.0000      0.0249
  748.0000      0.0248
  749.0000      0.0248
  750.0000      0.0249
  751.0000      0.0248
  752.0000      0.0249
  753.0000      0.0249
  754.0000      0.0248
  755.0000      0.0248
  756.0000      0.0248
  757.0000      0.0248
  758.0000      0.0248
  759.0000      0.0248
  760.0000      0.0248
  761.0000      0.0248
  762.0000      0.0249
  763.0000      0.0248
  764.0000      0.0248
  765.0000      0.0248
  766.0000      0.0248
  767.0000      0.0248
  768.0000      0.0248
  769.0000      0.0248
  770.0000      0.0248
  771.0000      0.0248
  772.0000      0.0248
  773.0000      0.0248
  774.0000      0.0248
  775.0000      0.0246
  776.0000      0.0246
  777.0000      0.0245
  778.0000      0.0245
  779.0000      0.0244
  780.0000      0.0244
  781.0000      0.0243
  782.0000      0.0243
  783.0000      0.0243
  784.0000      0.0242
  785.0000      0.0242
  786.0000      0.0242
  787.0000      0.0241
  788.0000      0.0241
  789.0000      0.0240
  790.0000      0.0240
  791.0000      0.0240
  792.0000      0.0240
  793.0000      0.0240
  794.0000      0.0240
  795.0000      0.0240
  796.0000      0.0239
  797.0000      0.0239
  798.0000      0.0238
  799.0000      0.0238
  800.0000      0.0237
