Start Wavelength:    200.0000
End Wavelength:    800.0000
Read Mode:  ABS
Read Average:      0.1000
Nanometer Interval:      1.0000
Time:      0.0000

  200.0000      1.7402
  201.0000      1.1831
  202.0000      0.9453
  203.0000      0.7729
  204.0000      0.6350
  205.0000      0.5480
  206.0000      0.4902
  207.0000      0.4418
  208.0000      0.4071
  209.0000      0.3751
  210.0000      0.3516
  211.0000      0.3321
  212.0000      0.3157
  213.0000      0.2997
  214.0000      0.2879
  215.0000      0.2759
  216.0000      0.2663
  217.0000      0.2569
  218.0000      0.2497
  219.0000      0.2429
  220.0000      0.2360
  221.0000      0.2297
  222.0000      0.2240
  223.0000      0.2182
  224.0000      0.2136
  225.0000      0.2080
  226.0000      0.2030
  227.0000      0.1988
  228.0000      0.1942
  229.0000      0.1889
  230.0000      0.1854
  231.0000      0.1804
  232.0000      0.1769
  233.0000      0.1727
  234.0000      0.1684
  235.0000      0.1653
  236.0000      0.1612
  237.0000      0.1580
  238.0000      0.1550
  239.0000      0.1522
  240.0000      0.1495
  241.0000      0.1467
  242.0000      0.1447
  243.0000      0.1423
  244.0000      0.1408
  245.0000      0.1385
  246.0000      0.1366
  247.0000      0.1354
  248.0000      0.1340
  249.0000      0.1322
  250.0000      0.1308
  251.0000      0.1298
  252.0000      0.1284
  253.0000      0.1274
  254.0000      0.1259
  255.0000      0.1245
  256.0000      0.1234
  257.0000      0.1224
  258.0000      0.1204
  259.0000      0.1197
  260.0000      0.1184
  261.0000      0.1161
  262.0000      0.1151
  263.0000      0.1137
  264.0000      0.1120
  265.0000      0.1113
  266.0000      0.1089
  267.0000      0.1073
  268.0000      0.1059
  269.0000      0.1040
  270.0000      0.1024
  271.0000      0.1007
  272.0000      0.0994
  273.0000      0.0971
  274.0000      0.0949
  275.0000      0.0932
  276.0000      0.0914
  277.0000      0.0893
  278.0000      0.0880
  279.0000      0.0857
  280.0000      0.0844
  281.0000      0.0832
  282.0000      0.0805
  283.0000      0.0794
  284.0000      0.0769
  285.0000      0.0756
  286.0000      0.0741
  287.0000      0.0719
  288.0000      0.0707
  289.0000      0.0691
  290.0000      0.0669
  291.0000      0.0655
  292.0000      0.0640
  293.0000      0.0624
  294.0000      0.0609
  295.0000      0.0591
  296.0000      0.0581
  297.0000      0.0569
  298.0000      0.0551
  299.0000      0.0545
  300.0000      0.0538
  301.0000      0.0519
  302.0000      0.0520
  303.0000      0.0501
  304.0000      0.0492
  305.0000      0.0480
  306.0000      0.0473
  307.0000      0.0465
  308.0000      0.0453
  309.0000      0.0454
  310.0000      0.0443
  311.0000      0.0431
  312.0000      0.0436
  313.0000      0.0424
  314.0000      0.0411
  315.0000      0.0412
  316.0000      0.0412
  317.0000      0.0399
  318.0000      0.0402
  319.0000      0.0387
  320.0000      0.0388
  321.0000      0.0386
  322.0000      0.0372
  323.0000      0.0365
  324.0000      0.0360
  325.0000      0.0353
  326.0000      0.0348
  327.0000      0.0345
  328.0000      0.0339
  329.0000      0.0336
  330.0000      0.0331
  331.0000      0.0329
  332.0000      0.0324
  333.0000      0.0324
  334.0000      0.0319
  335.0000      0.0321
  336.0000      0.0312
  337.0000      0.0313
  338.0000      0.0310
  339.0000      0.0303
  340.0000      0.0307
  341.0000      0.0300
  342.0000      0.0299
  343.0000      0.0293
  344.0000      0.0289
  345.0000      0.0284
  346.0000      0.0288
  347.0000      0.0284
  348.0000      0.0281
  349.0000      0.0274
  350.0000      0.0275
  351.0000      0.0271
  352.0000      0.0269
  353.0000      0.0269
  354.0000      0.0266
  355.0000      0.0264
  356.0000      0.0265
  357.0000      0.0253
  358.0000      0.0277
  359.0000      0.0252
  360.0000      0.0265
  361.0000      0.0259
  362.0000      0.0249
  363.0000      0.0261
  364.0000      0.0255
  365.0000      0.0254
  366.0000      0.0256
  367.0000      0.0244
  368.0000      0.0247
  369.0000      0.0237
  370.0000      0.0240
  371.0000      0.0233
  372.0000      0.0238
  373.0000      0.0243
  374.0000      0.0247
  375.0000      0.0232
  376.0000      0.0238
  377.0000      0.0236
  378.0000      0.0228
  379.0000      0.0233
  380.0000      0.0226
  381.0000      0.0227
  382.0000      0.0219
  383.0000      0.0220
  384.0000      0.0228
  385.0000      0.0219
  386.0000      0.0221
  387.0000      0.0221
  388.0000      0.0214
  389.0000      0.0221
  390.0000      0.0209
  391.0000      0.0216
  392.0000      0.0214
  393.0000      0.0208
  394.0000      0.0212
  395.0000      0.0211
  396.0000      0.0203
  397.0000      0.0207
  398.0000      0.0207
  399.0000      0.0207
  400.0000      0.0207
  401.0000      0.0199
  402.0000      0.0204
  403.0000      0.0200
  404.0000      0.0196
  405.0000      0.0204
  406.0000      0.0198
  407.0000      0.0200
  408.0000      0.0199
  409.0000      0.0195
  410.0000      0.0199
  411.0000      0.0192
  412.0000      0.0196
  413.0000      0.0192
  414.0000      0.0193
  415.0000      0.0195
  416.0000      0.0187
  417.0000      0.0188
  418.0000      0.0185
  419.0000      0.0186
  420.0000      0.0184
  421.0000      0.0184
  422.0000      0.0183
  423.0000      0.0181
  424.0000      0.0182
  425.0000      0.0181
  426.0000      0.0181
  427.0000      0.0181
  428.0000      0.0182
  429.0000      0.0182
  430.0000      0.0182
  431.0000      0.0182
  432.0000      0.0182
  433.0000      0.0183
  434.0000      0.0183
  435.0000      0.0183
  436.0000      0.0182
  437.0000      0.0182
  438.0000      0.0182
  439.0000      0.0181
  440.0000      0.0180
  441.0000      0.0180
  442.0000      0.0179
  443.0000      0.0179
  444.0000      0.0178
  445.0000      0.0178
  446.0000      0.0177
  447.0000      0.0176
  448.0000      0.0175
  449.0000      0.0175
  450.0000      0.0174
  451.0000      0.0172
  452.0000      0.0172
  453.0000      0.0171
  454.0000      0.0170
  455.0000      0.0170
  456.0000      0.0169
  457.0000      0.0168
  458.0000      0.0167
  459.0000      0.0167
  460.0000      0.0166
  461.0000      0.0165
  462.0000      0.0165
  463.0000      0.0165
  464.0000      0.0164
  465.0000      0.0164
  466.0000      0.0164
  467.0000      0.0163
  468.0000      0.0163
  469.0000      0.0161
  470.0000      0.0160
  471.0000      0.0159
  472.0000      0.0158
  473.0000      0.0158
  474.0000      0.0157
  475.0000      0.0156
  476.0000      0.0156
  477.0000      0.0155
  478.0000      0.0155
  479.0000      0.0153
  480.0000      0.0154
  481.0000      0.0154
  482.0000      0.0153
  483.0000      0.0153
  484.0000      0.0152
  485.0000      0.0151
  486.0000      0.0150
  487.0000      0.0149
  488.0000      0.0147
  489.0000      0.0146
  490.0000      0.0145
  491.0000      0.0145
  492.0000      0.0143
  493.0000      0.0143
  494.0000      0.0142
  495.0000      0.0142
  496.0000      0.0141
  497.0000      0.0140
  498.0000      0.0140
  499.0000      0.0139
  500.0000      0.0139
  501.0000      0.0139
  502.0000      0.0139
  503.0000      0.0138
  504.0000      0.0138
  505.0000      0.0138
  506.0000      0.0137
  507.0000      0.0137
  508.0000      0.0137
  509.0000      0.0136
  510.0000      0.0136
  511.0000      0.0135
  512.0000      0.0136
  513.0000      0.0135
  514.0000      0.0135
  515.0000      0.0135
  516.0000      0.0135
  517.0000      0.0135
  518.0000      0.0134
  519.0000      0.0134
  520.0000      0.0134
  521.0000      0.0134
  522.0000      0.0133
  523.0000      0.0133
  524.0000      0.0133
  525.0000      0.0133
  526.0000      0.0132
  527.0000      0.0132
  528.0000      0.0131
  529.0000      0.0131
  530.0000      0.0131
  531.0000      0.0131
  532.0000      0.0131
  533.0000      0.0130
  534.0000      0.0130
  535.0000      0.0130
  536.0000      0.0130
  537.0000      0.0130
  538.0000      0.0129
  539.0000      0.0129
  540.0000      0.0128
  541.0000      0.0128
  542.0000      0.0127
  543.0000      0.0127
  544.0000      0.0127
  545.0000      0.0126
  546.0000      0.0126
  547.0000      0.0126
  548.0000      0.0126
  549.0000      0.0126
  550.0000      0.0125
  551.0000      0.0125
  552.0000      0.0124
  553.0000      0.0124
  554.0000      0.0124
  555.0000      0.0123
  556.0000      0.0123
  557.0000      0.0124
  558.0000      0.0124
  559.0000      0.0124
  560.0000      0.0123
  561.0000      0.0123
  562.0000      0.0123
  563.0000      0.0123
  564.0000      0.0122
  565.0000      0.0122
  566.0000      0.0122
  567.0000      0.0121
  568.0000      0.0122
  569.0000      0.0121
  570.0000      0.0120
  571.0000      0.0120
  572.0000      0.0120
  573.0000      0.0120
  574.0000      0.0120
  575.0000      0.0119
  576.0000      0.0119
  577.0000      0.0119
  578.0000      0.0119
  579.0000      0.0119
  580.0000      0.0119
  581.0000      0.0118
  582.0000      0.0118
  583.0000      0.0117
  584.0000      0.0116
  585.0000      0.0115
  586.0000      0.0115
  587.0000      0.0115
  588.0000      0.0115
  589.0000      0.0115
  590.0000      0.0114
  591.0000      0.0114
  592.0000      0.0113
  593.0000      0.0113
  594.0000      0.0114
  595.0000      0.0114
  596.0000      0.0114
  597.0000      0.0114
  598.0000      0.0113
  599.0000      0.0113
  600.0000      0.0113
  601.0000      0.0113
  602.0000      0.0113
  603.0000      0.0113
  604.0000      0.0113
  605.0000      0.0112
  606.0000      0.0112
  607.0000      0.0111
  608.0000      0.0111
  609.0000      0.0111
  610.0000      0.0111
  611.0000      0.0111
  612.0000      0.0111
  613.0000      0.0111
  614.0000      0.0110
  615.0000      0.0110
  616.0000      0.0110
  617.0000      0.0109
  618.0000      0.0109
  619.0000      0.0109
  620.0000      0.0109
  621.0000      0.0109
  622.0000      0.0108
  623.0000      0.0108
  624.0000      0.0108
  625.0000      0.0108
  626.0000      0.0108
  627.0000      0.0108
  628.0000      0.0108
  629.0000      0.0108
  630.0000      0.0108
  631.0000      0.0108
  632.0000      0.0108
  633.0000      0.0109
  634.0000      0.0110
  635.0000      0.0111
  636.0000      0.0114
  637.0000      0.0116
  638.0000      0.0120
  639.0000      0.0122
  640.0000      0.0126
  641.0000      0.0128
  642.0000      0.0132
  643.0000      0.0134
  644.0000      0.0135
  645.0000      0.0137
  646.0000      0.0139
  647.0000      0.0141
  648.0000      0.0142
  649.0000      0.0142
  650.0000      0.0143
  651.0000      0.0142
  652.0000      0.0140
  653.0000      0.0141
  654.0000      0.0142
  655.0000      0.0143
  656.0000      0.0143
  657.0000      0.0143
  658.0000      0.0143
  659.0000      0.0143
  660.0000      0.0143
  661.0000      0.0143
  662.0000      0.0143
  663.0000      0.0141
  664.0000      0.0141
  665.0000      0.0141
  666.0000      0.0141
  667.0000      0.0141
  668.0000      0.0139
  669.0000      0.0139
  670.0000      0.0139
  671.0000      0.0137
  672.0000      0.0135
  673.0000      0.0135
  674.0000      0.0136
  675.0000      0.0136
  676.0000      0.0134
  677.0000      0.0132
  678.0000      0.0131
  679.0000      0.0128
  680.0000      0.0126
  681.0000      0.0123
  682.0000      0.0121
  683.0000      0.0118
  684.0000      0.0115
  685.0000      0.0114
  686.0000      0.0113
  687.0000      0.0112
  688.0000      0.0111
  689.0000      0.0109
  690.0000      0.0109
  691.0000      0.0108
  692.0000      0.0107
  693.0000      0.0106
  694.0000      0.0104
  695.0000      0.0103
  696.0000      0.0102
  697.0000      0.0101
  698.0000      0.0101
  699.0000      0.0100
  700.0000      0.0100
  701.0000      0.0099
  702.0000      0.0098
  703.0000      0.0097
  704.0000      0.0097
  705.0000      0.0097
  706.0000      0.0097
  707.0000      0.0097
  708.0000      0.0097
  709.0000      0.0097
  710.0000      0.0096
  711.0000      0.0096
  712.0000      0.0095
  713.0000      0.0095
  714.0000      0.0095
  715.0000      0.0095
  716.0000      0.0095
  717.0000      0.0095
  718.0000      0.0095
  719.0000      0.0094
  720.0000      0.0094
  721.0000      0.0095
  722.0000      0.0094
  723.0000      0.0094
  724.0000      0.0094
  725.0000      0.0094
  726.0000      0.0094
  727.0000      0.0093
  728.0000      0.0093
  729.0000      0.0093
  730.0000      0.0093
  731.0000      0.0093
  732.0000      0.0093
  733.0000      0.0092
  734.0000      0.0092
  735.0000      0.0092
  736.0000      0.0097
  737.0000      0.0096
  738.0000      0.0096
  739.0000      0.0096
  740.0000      0.0096
  741.0000      0.0096
  742.0000      0.0096
  743.0000      0.0096
  744.0000      0.0097
  745.0000      0.0096
  746.0000      0.0096
  747.0000      0.0096
  748.0000      0.0096
  749.0000      0.0096
  750.0000      0.0097
  751.0000      0.0096
  752.0000      0.0096
  753.0000      0.0096
  754.0000      0.0096
  755.0000      0.0096
  756.0000      0.0096
  757.0000      0.0096
  758.0000      0.0095
  759.0000      0.0096
  760.0000      0.0095
  761.0000      0.0095
  762.0000      0.0096
  763.0000      0.0094
  764.0000      0.0095
  765.0000      0.0094
  766.0000      0.0095
  767.0000      0.0094
  768.0000      0.0094
  769.0000      0.0094
  770.0000      0.0095
  771.0000      0.0094
  772.0000      0.0094
  773.0000      0.0094
  774.0000      0.0094
  775.0000      0.0093
  776.0000      0.0093
  777.0000      0.0093
  778.0000      0.0092
  779.0000      0.0092
  780.0000      0.0092
  781.0000      0.0092
  782.0000      0.0092
  783.0000      0.0092
  784.0000      0.0091
  785.0000      0.0091
  786.0000      0.0091
  787.0000      0.0091
  788.0000      0.0091
  789.0000      0.0091
  790.0000      0.0091
  791.0000      0.0091
  792.0000      0.0091
  793.0000      0.0091
  794.0000      0.0090
  795.0000      0.0090
  796.0000      0.0090
  797.0000      0.0090
  798.0000      0.0089
  799.0000      0.0089
  800.0000      0.0089
