Start Wavelength:    200.0000
End Wavelength:    800.0000
Read Mode:  ABS
Read Average:      0.1000
Nanometer Interval:      1.0000
Time:      0.0000

  200.0000      1.7097
  201.0000      1.1775
  202.0000      0.9473
  203.0000      0.7711
  204.0000      0.6366
  205.0000      0.5496
  206.0000      0.4923
  207.0000      0.4449
  208.0000      0.4099
  209.0000      0.3783
  210.0000      0.3540
  211.0000      0.3351
  212.0000      0.3186
  213.0000      0.3020
  214.0000      0.2897
  215.0000      0.2777
  216.0000      0.2675
  217.0000      0.2578
  218.0000      0.2494
  219.0000      0.2414
  220.0000      0.2339
  221.0000      0.2278
  222.0000      0.2212
  223.0000      0.2156
  224.0000      0.2103
  225.0000      0.2046
  226.0000      0.1998
  227.0000      0.1949
  228.0000      0.1897
  229.0000      0.1848
  230.0000      0.1812
  231.0000      0.1760
  232.0000      0.1723
  233.0000      0.1680
  234.0000      0.1643
  235.0000      0.1612
  236.0000      0.1567
  237.0000      0.1534
  238.0000      0.1506
  239.0000      0.1474
  240.0000      0.1451
  241.0000      0.1423
  242.0000      0.1403
  243.0000      0.1379
  244.0000      0.1364
  245.0000      0.1342
  246.0000      0.1329
  247.0000      0.1312
  248.0000      0.1299
  249.0000      0.1281
  250.0000      0.1274
  251.0000      0.1260
  252.0000      0.1244
  253.0000      0.1241
  254.0000      0.1224
  255.0000      0.1207
  256.0000      0.1201
  257.0000      0.1188
  258.0000      0.1177
  259.0000      0.1166
  260.0000      0.1148
  261.0000      0.1134
  262.0000      0.1121
  263.0000      0.1110
  264.0000      0.1092
  265.0000      0.1083
  266.0000      0.1058
  267.0000      0.1046
  268.0000      0.1028
  269.0000      0.1014
  270.0000      0.0994
  271.0000      0.0978
  272.0000      0.0964
  273.0000      0.0944
  274.0000      0.0924
  275.0000      0.0909
  276.0000      0.0890
  277.0000      0.0876
  278.0000      0.0855
  279.0000      0.0831
  280.0000      0.0820
  281.0000      0.0802
  282.0000      0.0781
  283.0000      0.0773
  284.0000      0.0750
  285.0000      0.0731
  286.0000      0.0715
  287.0000      0.0692
  288.0000      0.0681
  289.0000      0.0663
  290.0000      0.0647
  291.0000      0.0630
  292.0000      0.0613
  293.0000      0.0605
  294.0000      0.0585
  295.0000      0.0573
  296.0000      0.0563
  297.0000      0.0540
  298.0000      0.0534
  299.0000      0.0523
  300.0000      0.0511
  301.0000      0.0501
  302.0000      0.0497
  303.0000      0.0483
  304.0000      0.0472
  305.0000      0.0460
  306.0000      0.0459
  307.0000      0.0450
  308.0000      0.0441
  309.0000      0.0437
  310.0000      0.0423
  311.0000      0.0419
  312.0000      0.0414
  313.0000      0.0400
  314.0000      0.0401
  315.0000      0.0396
  316.0000      0.0390
  317.0000      0.0381
  318.0000      0.0383
  319.0000      0.0378
  320.0000      0.0370
  321.0000      0.0375
  322.0000      0.0361
  323.0000      0.0360
  324.0000      0.0352
  325.0000      0.0349
  326.0000      0.0346
  327.0000      0.0338
  328.0000      0.0338
  329.0000      0.0330
  330.0000      0.0328
  331.0000      0.0325
  332.0000      0.0317
  333.0000      0.0317
  334.0000      0.0318
  335.0000      0.0311
  336.0000      0.0312
  337.0000      0.0307
  338.0000      0.0303
  339.0000      0.0298
  340.0000      0.0296
  341.0000      0.0297
  342.0000      0.0293
  343.0000      0.0286
  344.0000      0.0289
  345.0000      0.0279
  346.0000      0.0281
  347.0000      0.0279
  348.0000      0.0273
  349.0000      0.0271
  350.0000      0.0265
  351.0000      0.0263
  352.0000      0.0267
  353.0000      0.0259
  354.0000      0.0261
  355.0000      0.0255
  356.0000      0.0258
  357.0000      0.0246
  358.0000      0.0257
  359.0000      0.0248
  360.0000      0.0255
  361.0000      0.0251
  362.0000      0.0241
  363.0000      0.0249
  364.0000      0.0236
  365.0000      0.0261
  366.0000      0.0231
  367.0000      0.0242
  368.0000      0.0243
  369.0000      0.0218
  370.0000      0.0235
  371.0000      0.0227
  372.0000      0.0227
  373.0000      0.0232
  374.0000      0.0227
  375.0000      0.0225
  376.0000      0.0222
  377.0000      0.0227
  378.0000      0.0223
  379.0000      0.0217
  380.0000      0.0215
  381.0000      0.0219
  382.0000      0.0212
  383.0000      0.0217
  384.0000      0.0218
  385.0000      0.0212
  386.0000      0.0215
  387.0000      0.0208
  388.0000      0.0211
  389.0000      0.0206
  390.0000      0.0196
  391.0000      0.0208
  392.0000      0.0200
  393.0000      0.0205
  394.0000      0.0199
  395.0000      0.0200
  396.0000      0.0204
  397.0000      0.0198
  398.0000      0.0197
  399.0000      0.0195
  400.0000      0.0196
  401.0000      0.0194
  402.0000      0.0194
  403.0000      0.0191
  404.0000      0.0191
  405.0000      0.0193
  406.0000      0.0193
  407.0000      0.0189
  408.0000      0.0191
  409.0000      0.0188
  410.0000      0.0189
  411.0000      0.0187
  412.0000      0.0187
  413.0000      0.0188
  414.0000      0.0188
  415.0000      0.0190
  416.0000      0.0190
  417.0000      0.0189
  418.0000      0.0189
  419.0000      0.0189
  420.0000      0.0187
  421.0000      0.0188
  422.0000      0.0186
  423.0000      0.0185
  424.0000      0.0187
  425.0000      0.0186
  426.0000      0.0188
  427.0000      0.0187
  428.0000      0.0189
  429.0000      0.0190
  430.0000      0.0189
  431.0000      0.0189
  432.0000      0.0188
  433.0000      0.0190
  434.0000      0.0189
  435.0000      0.0188
  436.0000      0.0188
  437.0000      0.0187
  438.0000      0.0187
  439.0000      0.0187
  440.0000      0.0185
  441.0000      0.0186
  442.0000      0.0186
  443.0000      0.0185
  444.0000      0.0184
  445.0000      0.0184
  446.0000      0.0183
  447.0000      0.0183
  448.0000      0.0182
  449.0000      0.0182
  450.0000      0.0181
  451.0000      0.0180
  452.0000      0.0179
  453.0000      0.0178
  454.0000      0.0177
  455.0000      0.0177
  456.0000      0.0177
  457.0000      0.0176
  458.0000      0.0175
  459.0000      0.0175
  460.0000      0.0173
  461.0000      0.0173
  462.0000      0.0172
  463.0000      0.0172
  464.0000      0.0172
  465.0000      0.0171
  466.0000      0.0171
  467.0000      0.0169
  468.0000      0.0168
  469.0000      0.0168
  470.0000      0.0167
  471.0000      0.0165
  472.0000      0.0164
  473.0000      0.0163
  474.0000      0.0161
  475.0000      0.0160
  476.0000      0.0159
  477.0000      0.0157
  478.0000      0.0157
  479.0000      0.0155
  480.0000      0.0154
  481.0000      0.0153
  482.0000      0.0152
  483.0000      0.0151
  484.0000      0.0149
  485.0000      0.0148
  486.0000      0.0148
  487.0000      0.0147
  488.0000      0.0147
  489.0000      0.0146
  490.0000      0.0146
  491.0000      0.0145
  492.0000      0.0145
  493.0000      0.0145
  494.0000      0.0144
  495.0000      0.0144
  496.0000      0.0143
  497.0000      0.0143
  498.0000      0.0142
  499.0000      0.0142
  500.0000      0.0141
  501.0000      0.0140
  502.0000      0.0139
  503.0000      0.0138
  504.0000      0.0137
  505.0000      0.0136
  506.0000      0.0136
  507.0000      0.0135
  508.0000      0.0134
  509.0000      0.0133
  510.0000      0.0132
  511.0000      0.0131
  512.0000      0.0131
  513.0000      0.0130
  514.0000      0.0129
  515.0000      0.0129
  516.0000      0.0128
  517.0000      0.0128
  518.0000      0.0127
  519.0000      0.0127
  520.0000      0.0126
  521.0000      0.0126
  522.0000      0.0125
  523.0000      0.0125
  524.0000      0.0124
  525.0000      0.0124
  526.0000      0.0123
  527.0000      0.0122
  528.0000      0.0122
  529.0000      0.0121
  530.0000      0.0121
  531.0000      0.0120
  532.0000      0.0120
  533.0000      0.0120
  534.0000      0.0119
  535.0000      0.0118
  536.0000      0.0118
  537.0000      0.0118
  538.0000      0.0117
  539.0000      0.0117
  540.0000      0.0117
  541.0000      0.0117
  542.0000      0.0116
  543.0000      0.0115
  544.0000      0.0115
  545.0000      0.0115
  546.0000      0.0114
  547.0000      0.0113
  548.0000      0.0112
  549.0000      0.0112
  550.0000      0.0111
  551.0000      0.0111
  552.0000      0.0111
  553.0000      0.0110
  554.0000      0.0110
  555.0000      0.0109
  556.0000      0.0109
  557.0000      0.0113
  558.0000      0.0113
  559.0000      0.0113
  560.0000      0.0113
  561.0000      0.0113
  562.0000      0.0113
  563.0000      0.0113
  564.0000      0.0113
  565.0000      0.0113
  566.0000      0.0113
  567.0000      0.0112
  568.0000      0.0112
  569.0000      0.0112
  570.0000      0.0111
  571.0000      0.0111
  572.0000      0.0111
  573.0000      0.0111
  574.0000      0.0110
  575.0000      0.0110
  576.0000      0.0109
  577.0000      0.0109
  578.0000      0.0108
  579.0000      0.0109
  580.0000      0.0108
  581.0000      0.0108
  582.0000      0.0108
  583.0000      0.0108
  584.0000      0.0107
  585.0000      0.0107
  586.0000      0.0106
  587.0000      0.0106
  588.0000      0.0106
  589.0000      0.0106
  590.0000      0.0105
  591.0000      0.0105
  592.0000      0.0105
  593.0000      0.0105
  594.0000      0.0104
  595.0000      0.0104
  596.0000      0.0104
  597.0000      0.0103
  598.0000      0.0103
  599.0000      0.0102
  600.0000      0.0102
  601.0000      0.0102
  602.0000      0.0101
  603.0000      0.0101
  604.0000      0.0101
  605.0000      0.0100
  606.0000      0.0100
  607.0000      0.0100
  608.0000      0.0100
  609.0000      0.0100
  610.0000      0.0100
  611.0000      0.0101
  612.0000      0.0101
  613.0000      0.0102
  614.0000      0.0103
  615.0000      0.0103
  616.0000      0.0103
  617.0000      0.0103
  618.0000      0.0103
  619.0000      0.0103
  620.0000      0.0103
  621.0000      0.0103
  622.0000      0.0103
  623.0000      0.0103
  624.0000      0.0102
  625.0000      0.0103
  626.0000      0.0103
  627.0000      0.0103
  628.0000      0.0104
  629.0000      0.0104
  630.0000      0.0104
  631.0000      0.0104
  632.0000      0.0104
  633.0000      0.0104
  634.0000      0.0104
  635.0000      0.0103
  636.0000      0.0103
  637.0000      0.0103
  638.0000      0.0102
  639.0000      0.0102
  640.0000      0.0102
  641.0000      0.0102
  642.0000      0.0102
  643.0000      0.0101
  644.0000      0.0102
  645.0000      0.0101
  646.0000      0.0101
  647.0000      0.0101
  648.0000      0.0101
  649.0000      0.0101
  650.0000      0.0101
  651.0000      0.0101
  652.0000      0.0101
  653.0000      0.0101
  654.0000      0.0100
  655.0000      0.0099
  656.0000      0.0099
  657.0000      0.0101
  658.0000      0.0101
  659.0000      0.0102
  660.0000      0.0104
  661.0000      0.0105
  662.0000      0.0105
  663.0000      0.0105
  664.0000      0.0106
  665.0000      0.0107
  666.0000      0.0107
  667.0000      0.0108
  668.0000      0.0108
  669.0000      0.0108
  670.0000      0.0109
  671.0000      0.0110
  672.0000      0.0111
  673.0000      0.0112
  674.0000      0.0113
  675.0000      0.0113
  676.0000      0.0114
  677.0000      0.0115
  678.0000      0.0115
  679.0000      0.0115
  680.0000      0.0115
  681.0000      0.0115
  682.0000      0.0115
  683.0000      0.0114
  684.0000      0.0113
  685.0000      0.0112
  686.0000      0.0111
  687.0000      0.0112
  688.0000      0.0111
  689.0000      0.0109
  690.0000      0.0109
  691.0000      0.0109
  692.0000      0.0108
  693.0000      0.0107
  694.0000      0.0107
  695.0000      0.0106
  696.0000      0.0104
  697.0000      0.0103
  698.0000      0.0103
  699.0000      0.0101
  700.0000      0.0100
  701.0000      0.0098
  702.0000      0.0096
  703.0000      0.0095
  704.0000      0.0093
  705.0000      0.0092
  706.0000      0.0092
  707.0000      0.0092
  708.0000      0.0091
  709.0000      0.0091
  710.0000      0.0090
  711.0000      0.0090
  712.0000      0.0090
  713.0000      0.0090
  714.0000      0.0089
  715.0000      0.0089
  716.0000      0.0088
  717.0000      0.0088
  718.0000      0.0088
  719.0000      0.0088
  720.0000      0.0088
  721.0000      0.0088
  722.0000      0.0087
  723.0000      0.0087
  724.0000      0.0086
  725.0000      0.0086
  726.0000      0.0086
  727.0000      0.0085
  728.0000      0.0085
  729.0000      0.0084
  730.0000      0.0084
  731.0000      0.0083
  732.0000      0.0083
  733.0000      0.0083
  734.0000      0.0083
  735.0000      0.0082
  736.0000      0.0081
  737.0000      0.0080
  738.0000      0.0080
  739.0000      0.0080
  740.0000      0.0080
  741.0000      0.0080
  742.0000      0.0080
  743.0000      0.0081
  744.0000      0.0081
  745.0000      0.0080
  746.0000      0.0080
  747.0000      0.0080
  748.0000      0.0080
  749.0000      0.0080
  750.0000      0.0080
  751.0000      0.0080
  752.0000      0.0080
  753.0000      0.0080
  754.0000      0.0080
  755.0000      0.0080
  756.0000      0.0080
  757.0000      0.0080
  758.0000      0.0080
  759.0000      0.0080
  760.0000      0.0079
  761.0000      0.0079
  762.0000      0.0079
  763.0000      0.0079
  764.0000      0.0080
  765.0000      0.0080
  766.0000      0.0080
  767.0000      0.0080
  768.0000      0.0080
  769.0000      0.0080
  770.0000      0.0080
  771.0000      0.0080
  772.0000      0.0079
  773.0000      0.0079
  774.0000      0.0079
  775.0000      0.0079
  776.0000      0.0079
  777.0000      0.0078
  778.0000      0.0079
  779.0000      0.0078
  780.0000      0.0078
  781.0000      0.0078
  782.0000      0.0078
  783.0000      0.0078
  784.0000      0.0078
  785.0000      0.0077
  786.0000      0.0078
  787.0000      0.0077
  788.0000      0.0077
  789.0000      0.0077
  790.0000      0.0077
  791.0000      0.0078
  792.0000      0.0079
  793.0000      0.0080
  794.0000      0.0081
  795.0000      0.0081
  796.0000      0.0082
  797.0000      0.0082
  798.0000      0.0082
  799.0000      0.0083
  800.0000      0.0082
