Start Wavelength:    200.0000
End Wavelength:    800.0000
Read Mode:  ABS
Read Average:      0.1000
Nanometer Interval:      1.0000
Time:      0.0000

  200.0000      0.5930
  201.0000      0.5272
  202.0000      0.4945
  203.0000      0.4691
  204.0000      0.4412
  205.0000      0.4219
  206.0000      0.4061
  207.0000      0.3905
  208.0000      0.3773
  209.0000      0.3646
  210.0000      0.3524
  211.0000      0.3418
  212.0000      0.3327
  213.0000      0.3223
  214.0000      0.3131
  215.0000      0.3058
  216.0000      0.2981
  217.0000      0.2898
  218.0000      0.2832
  219.0000      0.2772
  220.0000      0.2716
  221.0000      0.2650
  222.0000      0.2600
  223.0000      0.2551
  224.0000      0.2502
  225.0000      0.2450
  226.0000      0.2408
  227.0000      0.2362
  228.0000      0.2319
  229.0000      0.2276
  230.0000      0.2242
  231.0000      0.2195
  232.0000      0.2163
  233.0000      0.2124
  234.0000      0.2088
  235.0000      0.2056
  236.0000      0.2018
  237.0000      0.1989
  238.0000      0.1958
  239.0000      0.1929
  240.0000      0.1905
  241.0000      0.1879
  242.0000      0.1855
  243.0000      0.1833
  244.0000      0.1818
  245.0000      0.1792
  246.0000      0.1771
  247.0000      0.1761
  248.0000      0.1746
  249.0000      0.1722
  250.0000      0.1712
  251.0000      0.1696
  252.0000      0.1678
  253.0000      0.1666
  254.0000      0.1649
  255.0000      0.1635
  256.0000      0.1618
  257.0000      0.1605
  258.0000      0.1587
  259.0000      0.1579
  260.0000      0.1560
  261.0000      0.1541
  262.0000      0.1533
  263.0000      0.1515
  264.0000      0.1503
  265.0000      0.1493
  266.0000      0.1469
  267.0000      0.1453
  268.0000      0.1439
  269.0000      0.1422
  270.0000      0.1404
  271.0000      0.1389
  272.0000      0.1377
  273.0000      0.1357
  274.0000      0.1339
  275.0000      0.1322
  276.0000      0.1307
  277.0000      0.1291
  278.0000      0.1269
  279.0000      0.1251
  280.0000      0.1232
  281.0000      0.1216
  282.0000      0.1194
  283.0000      0.1172
  284.0000      0.1150
  285.0000      0.1136
  286.0000      0.1121
  287.0000      0.1096
  288.0000      0.1081
  289.0000      0.1062
  290.0000      0.1043
  291.0000      0.1028
  292.0000      0.1007
  293.0000      0.1000
  294.0000      0.0978
  295.0000      0.0969
  296.0000      0.0954
  297.0000      0.0936
  298.0000      0.0924
  299.0000      0.0909
  300.0000      0.0901
  301.0000      0.0882
  302.0000      0.0879
  303.0000      0.0869
  304.0000      0.0852
  305.0000      0.0834
  306.0000      0.0833
  307.0000      0.0821
  308.0000      0.0808
  309.0000      0.0802
  310.0000      0.0801
  311.0000      0.0780
  312.0000      0.0780
  313.0000      0.0770
  314.0000      0.0759
  315.0000      0.0753
  316.0000      0.0749
  317.0000      0.0737
  318.0000      0.0731
  319.0000      0.0727
  320.0000      0.0725
  321.0000      0.0720
  322.0000      0.0684
  323.0000      0.0676
  324.0000      0.0665
  325.0000      0.0658
  326.0000      0.0658
  327.0000      0.0639
  328.0000      0.0637
  329.0000      0.0631
  330.0000      0.0623
  331.0000      0.0619
  332.0000      0.0612
  333.0000      0.0611
  334.0000      0.0604
  335.0000      0.0601
  336.0000      0.0597
  337.0000      0.0592
  338.0000      0.0587
  339.0000      0.0584
  340.0000      0.0578
  341.0000      0.0575
  342.0000      0.0572
  343.0000      0.0566
  344.0000      0.0560
  345.0000      0.0558
  346.0000      0.0557
  347.0000      0.0549
  348.0000      0.0549
  349.0000      0.0543
  350.0000      0.0538
  351.0000      0.0537
  352.0000      0.0535
  353.0000      0.0529
  354.0000      0.0524
  355.0000      0.0525
  356.0000      0.0525
  357.0000      0.0529
  358.0000      0.0522
  359.0000      0.0509
  360.0000      0.0512
  361.0000      0.0506
  362.0000      0.0497
  363.0000      0.0507
  364.0000      0.0491
  365.0000      0.0501
  366.0000      0.0497
  367.0000      0.0493
  368.0000      0.0479
  369.0000      0.0478
  370.0000      0.0483
  371.0000      0.0471
  372.0000      0.0478
  373.0000      0.0474
  374.0000      0.0467
  375.0000      0.0462
  376.0000      0.0470
  377.0000      0.0463
  378.0000      0.0451
  379.0000      0.0456
  380.0000      0.0455
  381.0000      0.0448
  382.0000      0.0442
  383.0000      0.0446
  384.0000      0.0445
  385.0000      0.0439
  386.0000      0.0441
  387.0000      0.0430
  388.0000      0.0426
  389.0000      0.0429
  390.0000      0.0420
  391.0000      0.0424
  392.0000      0.0421
  393.0000      0.0421
  394.0000      0.0418
  395.0000      0.0415
  396.0000      0.0414
  397.0000      0.0412
  398.0000      0.0413
  399.0000      0.0413
  400.0000      0.0407
  401.0000      0.0402
  402.0000      0.0408
  403.0000      0.0401
  404.0000      0.0399
  405.0000      0.0399
  406.0000      0.0400
  407.0000      0.0399
  408.0000      0.0396
  409.0000      0.0396
  410.0000      0.0395
  411.0000      0.0388
  412.0000      0.0395
  413.0000      0.0389
  414.0000      0.0389
  415.0000      0.0390
  416.0000      0.0388
  417.0000      0.0388
  418.0000      0.0385
  419.0000      0.0383
  420.0000      0.0382
  421.0000      0.0380
  422.0000      0.0380
  423.0000      0.0378
  424.0000      0.0380
  425.0000      0.0380
  426.0000      0.0381
  427.0000      0.0380
  428.0000      0.0380
  429.0000      0.0379
  430.0000      0.0378
  431.0000      0.0377
  432.0000      0.0376
  433.0000      0.0376
  434.0000      0.0375
  435.0000      0.0373
  436.0000      0.0372
  437.0000      0.0371
  438.0000      0.0369
  439.0000      0.0368
  440.0000      0.0366
  441.0000      0.0364
  442.0000      0.0363
  443.0000      0.0362
  444.0000      0.0360
  445.0000      0.0359
  446.0000      0.0357
  447.0000      0.0356
  448.0000      0.0355
  449.0000      0.0354
  450.0000      0.0353
  451.0000      0.0351
  452.0000      0.0350
  453.0000      0.0348
  454.0000      0.0347
  455.0000      0.0347
  456.0000      0.0345
  457.0000      0.0343
  458.0000      0.0342
  459.0000      0.0341
  460.0000      0.0339
  461.0000      0.0339
  462.0000      0.0338
  463.0000      0.0338
  464.0000      0.0338
  465.0000      0.0337
  466.0000      0.0336
  467.0000      0.0336
  468.0000      0.0336
  469.0000      0.0335
  470.0000      0.0334
  471.0000      0.0333
  472.0000      0.0332
  473.0000      0.0331
  474.0000      0.0331
  475.0000      0.0331
  476.0000      0.0330
  477.0000      0.0329
  478.0000      0.0329
  479.0000      0.0327
  480.0000      0.0328
  481.0000      0.0327
  482.0000      0.0327
  483.0000      0.0327
  484.0000      0.0326
  485.0000      0.0325
  486.0000      0.0325
  487.0000      0.0325
  488.0000      0.0324
  489.0000      0.0323
  490.0000      0.0323
  491.0000      0.0322
  492.0000      0.0322
  493.0000      0.0323
  494.0000      0.0323
  495.0000      0.0324
  496.0000      0.0324
  497.0000      0.0324
  498.0000      0.0325
  499.0000      0.0325
  500.0000      0.0324
  501.0000      0.0323
  502.0000      0.0321
  503.0000      0.0320
  504.0000      0.0317
  505.0000      0.0315
  506.0000      0.0313
  507.0000      0.0311
  508.0000      0.0309
  509.0000      0.0308
  510.0000      0.0307
  511.0000      0.0306
  512.0000      0.0306
  513.0000      0.0305
  514.0000      0.0305
  515.0000      0.0304
  516.0000      0.0303
  517.0000      0.0303
  518.0000      0.0302
  519.0000      0.0302
  520.0000      0.0301
  521.0000      0.0300
  522.0000      0.0299
  523.0000      0.0299
  524.0000      0.0298
  525.0000      0.0297
  526.0000      0.0297
  527.0000      0.0296
  528.0000      0.0294
  529.0000      0.0293
  530.0000      0.0291
  531.0000      0.0290
  532.0000      0.0289
  533.0000      0.0289
  534.0000      0.0287
  535.0000      0.0286
  536.0000      0.0286
  537.0000      0.0286
  538.0000      0.0286
  539.0000      0.0285
  540.0000      0.0284
  541.0000      0.0283
  542.0000      0.0281
  543.0000      0.0280
  544.0000      0.0279
  545.0000      0.0278
  546.0000      0.0277
  547.0000      0.0277
  548.0000      0.0276
  549.0000      0.0276
  550.0000      0.0274
  551.0000      0.0274
  552.0000      0.0273
  553.0000      0.0272
  554.0000      0.0271
  555.0000      0.0270
  556.0000      0.0269
  557.0000      0.0255
  558.0000      0.0253
  559.0000      0.0252
  560.0000      0.0250
  561.0000      0.0249
  562.0000      0.0249
  563.0000      0.0247
  564.0000      0.0246
  565.0000      0.0246
  566.0000      0.0247
  567.0000      0.0248
  568.0000      0.0249
  569.0000      0.0250
  570.0000      0.0251
  571.0000      0.0252
  572.0000      0.0252
  573.0000      0.0251
  574.0000      0.0250
  575.0000      0.0248
  576.0000      0.0246
  577.0000      0.0245
  578.0000      0.0244
  579.0000      0.0243
  580.0000      0.0242
  581.0000      0.0242
  582.0000      0.0242
  583.0000      0.0242
  584.0000      0.0242
  585.0000      0.0242
  586.0000      0.0241
  587.0000      0.0241
  588.0000      0.0241
  589.0000      0.0240
  590.0000      0.0240
  591.0000      0.0240
  592.0000      0.0241
  593.0000      0.0242
  594.0000      0.0242
  595.0000      0.0243
  596.0000      0.0244
  597.0000      0.0244
  598.0000      0.0245
  599.0000      0.0245
  600.0000      0.0245
  601.0000      0.0246
  602.0000      0.0246
  603.0000      0.0244
  604.0000      0.0243
  605.0000      0.0242
  606.0000      0.0241
  607.0000      0.0240
  608.0000      0.0239
  609.0000      0.0238
  610.0000      0.0238
  611.0000      0.0237
  612.0000      0.0236
  613.0000      0.0236
  614.0000      0.0236
  615.0000      0.0235
  616.0000      0.0234
  617.0000      0.0233
  618.0000      0.0232
  619.0000      0.0232
  620.0000      0.0232
  621.0000      0.0232
  622.0000      0.0231
  623.0000      0.0231
  624.0000      0.0231
  625.0000      0.0231
  626.0000      0.0230
  627.0000      0.0230
  628.0000      0.0229
  629.0000      0.0229
  630.0000      0.0229
  631.0000      0.0229
  632.0000      0.0228
  633.0000      0.0227
  634.0000      0.0226
  635.0000      0.0226
  636.0000      0.0225
  637.0000      0.0223
  638.0000      0.0222
  639.0000      0.0221
  640.0000      0.0219
  641.0000      0.0217
  642.0000      0.0217
  643.0000      0.0217
  644.0000      0.0218
  645.0000      0.0217
  646.0000      0.0216
  647.0000      0.0217
  648.0000      0.0217
  649.0000      0.0217
  650.0000      0.0216
  651.0000      0.0217
  652.0000      0.0217
  653.0000      0.0218
  654.0000      0.0219
  655.0000      0.0219
  656.0000      0.0219
  657.0000      0.0219
  658.0000      0.0219
  659.0000      0.0220
  660.0000      0.0219
  661.0000      0.0219
  662.0000      0.0219
  663.0000      0.0219
  664.0000      0.0219
  665.0000      0.0218
  666.0000      0.0218
  667.0000      0.0219
  668.0000      0.0219
  669.0000      0.0219
  670.0000      0.0219
  671.0000      0.0220
  672.0000      0.0220
  673.0000      0.0220
  674.0000      0.0221
  675.0000      0.0220
  676.0000      0.0220
  677.0000      0.0219
  678.0000      0.0219
  679.0000      0.0218
  680.0000      0.0217
  681.0000      0.0215
  682.0000      0.0215
  683.0000      0.0214
  684.0000      0.0212
  685.0000      0.0211
  686.0000      0.0209
  687.0000      0.0208
  688.0000      0.0207
  689.0000      0.0206
  690.0000      0.0205
  691.0000      0.0203
  692.0000      0.0202
  693.0000      0.0200
  694.0000      0.0199
  695.0000      0.0197
  696.0000      0.0196
  697.0000      0.0195
  698.0000      0.0195
  699.0000      0.0194
  700.0000      0.0193
  701.0000      0.0192
  702.0000      0.0191
  703.0000      0.0190
  704.0000      0.0189
  705.0000      0.0188
  706.0000      0.0186
  707.0000      0.0186
  708.0000      0.0185
  709.0000      0.0185
  710.0000      0.0184
  711.0000      0.0183
  712.0000      0.0182
  713.0000      0.0181
  714.0000      0.0180
  715.0000      0.0180
  716.0000      0.0179
  717.0000      0.0179
  718.0000      0.0178
  719.0000      0.0178
  720.0000      0.0178
  721.0000      0.0178
  722.0000      0.0177
  723.0000      0.0176
  724.0000      0.0175
  725.0000      0.0175
  726.0000      0.0175
  727.0000      0.0175
  728.0000      0.0174
  729.0000      0.0174
  730.0000      0.0174
  731.0000      0.0175
  732.0000      0.0175
  733.0000      0.0174
  734.0000      0.0175
  735.0000      0.0175
  736.0000      0.0183
  737.0000      0.0183
  738.0000      0.0183
  739.0000      0.0184
  740.0000      0.0184
  741.0000      0.0185
  742.0000      0.0185
  743.0000      0.0186
  744.0000      0.0186
  745.0000      0.0186
  746.0000      0.0186
  747.0000      0.0187
  748.0000      0.0186
  749.0000      0.0186
  750.0000      0.0187
  751.0000      0.0186
  752.0000      0.0186
  753.0000      0.0186
  754.0000      0.0187
  755.0000      0.0187
  756.0000      0.0188
  757.0000      0.0189
  758.0000      0.0188
  759.0000      0.0188
  760.0000      0.0187
  761.0000      0.0187
  762.0000      0.0187
  763.0000      0.0187
  764.0000      0.0188
  765.0000      0.0188
  766.0000      0.0187
  767.0000      0.0187
  768.0000      0.0187
  769.0000      0.0186
  770.0000      0.0187
  771.0000      0.0186
  772.0000      0.0185
  773.0000      0.0185
  774.0000      0.0184
  775.0000      0.0183
  776.0000      0.0182
  777.0000      0.0182
  778.0000      0.0182
  779.0000      0.0182
  780.0000      0.0182
  781.0000      0.0182
  782.0000      0.0182
  783.0000      0.0181
  784.0000      0.0180
  785.0000      0.0180
  786.0000      0.0180
  787.0000      0.0180
  788.0000      0.0179
  789.0000      0.0180
  790.0000      0.0179
  791.0000      0.0180
  792.0000      0.0180
  793.0000      0.0181
  794.0000      0.0180
  795.0000      0.0180
  796.0000      0.0179
  797.0000      0.0179
  798.0000      0.0178
  799.0000      0.0177
  800.0000      0.0176
