Start Wavelength:    200.0000
End Wavelength:    800.0000
Read Mode:  ABS
Read Average:      0.1000
Nanometer Interval:      1.0000
Time:      0.0000

  200.0000      0.5406
  201.0000      0.4789
  202.0000      0.4443
  203.0000      0.4196
  204.0000      0.3913
  205.0000      0.3734
  206.0000      0.3568
  207.0000      0.3416
  208.0000      0.3299
  209.0000      0.3157
  210.0000      0.3054
  211.0000      0.2955
  212.0000      0.2868
  213.0000      0.2772
  214.0000      0.2697
  215.0000      0.2619
  216.0000      0.2545
  217.0000      0.2479
  218.0000      0.2420
  219.0000      0.2361
  220.0000      0.2305
  221.0000      0.2251
  222.0000      0.2198
  223.0000      0.2154
  224.0000      0.2111
  225.0000      0.2058
  226.0000      0.2018
  227.0000      0.1974
  228.0000      0.1934
  229.0000      0.1889
  230.0000      0.1856
  231.0000      0.1816
  232.0000      0.1785
  233.0000      0.1749
  234.0000      0.1715
  235.0000      0.1688
  236.0000      0.1651
  237.0000      0.1623
  238.0000      0.1596
  239.0000      0.1573
  240.0000      0.1545
  241.0000      0.1528
  242.0000      0.1512
  243.0000      0.1489
  244.0000      0.1478
  245.0000      0.1454
  246.0000      0.1435
  247.0000      0.1422
  248.0000      0.1405
  249.0000      0.1390
  250.0000      0.1382
  251.0000      0.1364
  252.0000      0.1349
  253.0000      0.1340
  254.0000      0.1324
  255.0000      0.1307
  256.0000      0.1297
  257.0000      0.1285
  258.0000      0.1269
  259.0000      0.1265
  260.0000      0.1246
  261.0000      0.1233
  262.0000      0.1221
  263.0000      0.1207
  264.0000      0.1193
  265.0000      0.1187
  266.0000      0.1165
  267.0000      0.1151
  268.0000      0.1138
  269.0000      0.1121
  270.0000      0.1108
  271.0000      0.1089
  272.0000      0.1074
  273.0000      0.1058
  274.0000      0.1049
  275.0000      0.1026
  276.0000      0.1014
  277.0000      0.0996
  278.0000      0.0978
  279.0000      0.0964
  280.0000      0.0953
  281.0000      0.0934
  282.0000      0.0921
  283.0000      0.0907
  284.0000      0.0886
  285.0000      0.0874
  286.0000      0.0862
  287.0000      0.0837
  288.0000      0.0825
  289.0000      0.0810
  290.0000      0.0787
  291.0000      0.0774
  292.0000      0.0757
  293.0000      0.0742
  294.0000      0.0725
  295.0000      0.0715
  296.0000      0.0695
  297.0000      0.0678
  298.0000      0.0672
  299.0000      0.0652
  300.0000      0.0648
  301.0000      0.0631
  302.0000      0.0622
  303.0000      0.0606
  304.0000      0.0598
  305.0000      0.0588
  306.0000      0.0581
  307.0000      0.0575
  308.0000      0.0563
  309.0000      0.0553
  310.0000      0.0548
  311.0000      0.0539
  312.0000      0.0536
  313.0000      0.0525
  314.0000      0.0515
  315.0000      0.0516
  316.0000      0.0514
  317.0000      0.0498
  318.0000      0.0501
  319.0000      0.0496
  320.0000      0.0487
  321.0000      0.0492
  322.0000      0.0472
  323.0000      0.0463
  324.0000      0.0456
  325.0000      0.0456
  326.0000      0.0445
  327.0000      0.0441
  328.0000      0.0443
  329.0000      0.0432
  330.0000      0.0430
  331.0000      0.0430
  332.0000      0.0414
  333.0000      0.0419
  334.0000      0.0416
  335.0000      0.0407
  336.0000      0.0406
  337.0000      0.0404
  338.0000      0.0396
  339.0000      0.0393
  340.0000      0.0394
  341.0000      0.0388
  342.0000      0.0387
  343.0000      0.0383
  344.0000      0.0377
  345.0000      0.0374
  346.0000      0.0372
  347.0000      0.0371
  348.0000      0.0366
  349.0000      0.0363
  350.0000      0.0358
  351.0000      0.0357
  352.0000      0.0355
  353.0000      0.0352
  354.0000      0.0353
  355.0000      0.0348
  356.0000      0.0350
  357.0000      0.0339
  358.0000      0.0350
  359.0000      0.0326
  360.0000      0.0344
  361.0000      0.0344
  362.0000      0.0324
  363.0000      0.0336
  364.0000      0.0323
  365.0000      0.0325
  366.0000      0.0320
  367.0000      0.0320
  368.0000      0.0313
  369.0000      0.0302
  370.0000      0.0306
  371.0000      0.0307
  372.0000      0.0309
  373.0000      0.0298
  374.0000      0.0306
  375.0000      0.0301
  376.0000      0.0297
  377.0000      0.0292
  378.0000      0.0288
  379.0000      0.0286
  380.0000      0.0279
  381.0000      0.0282
  382.0000      0.0271
  383.0000      0.0280
  384.0000      0.0280
  385.0000      0.0270
  386.0000      0.0272
  387.0000      0.0267
  388.0000      0.0269
  389.0000      0.0267
  390.0000      0.0254
  391.0000      0.0261
  392.0000      0.0257
  393.0000      0.0255
  394.0000      0.0256
  395.0000      0.0252
  396.0000      0.0250
  397.0000      0.0252
  398.0000      0.0253
  399.0000      0.0248
  400.0000      0.0249
  401.0000      0.0245
  402.0000      0.0246
  403.0000      0.0243
  404.0000      0.0239
  405.0000      0.0243
  406.0000      0.0242
  407.0000      0.0236
  408.0000      0.0235
  409.0000      0.0235
  410.0000      0.0233
  411.0000      0.0229
  412.0000      0.0232
  413.0000      0.0227
  414.0000      0.0230
  415.0000      0.0229
  416.0000      0.0221
  417.0000      0.0221
  418.0000      0.0218
  419.0000      0.0218
  420.0000      0.0216
  421.0000      0.0215
  422.0000      0.0215
  423.0000      0.0212
  424.0000      0.0212
  425.0000      0.0211
  426.0000      0.0210
  427.0000      0.0209
  428.0000      0.0208
  429.0000      0.0206
  430.0000      0.0206
  431.0000      0.0205
  432.0000      0.0203
  433.0000      0.0203
  434.0000      0.0202
  435.0000      0.0201
  436.0000      0.0199
  437.0000      0.0197
  438.0000      0.0197
  439.0000      0.0195
  440.0000      0.0193
  441.0000      0.0192
  442.0000      0.0192
  443.0000      0.0190
  444.0000      0.0189
  445.0000      0.0188
  446.0000      0.0186
  447.0000      0.0185
  448.0000      0.0184
  449.0000      0.0183
  450.0000      0.0183
  451.0000      0.0181
  452.0000      0.0181
  453.0000      0.0180
  454.0000      0.0179
  455.0000      0.0179
  456.0000      0.0177
  457.0000      0.0177
  458.0000      0.0176
  459.0000      0.0176
  460.0000      0.0177
  461.0000      0.0176
  462.0000      0.0176
  463.0000      0.0176
  464.0000      0.0176
  465.0000      0.0175
  466.0000      0.0176
  467.0000      0.0176
  468.0000      0.0177
  469.0000      0.0177
  470.0000      0.0177
  471.0000      0.0176
  472.0000      0.0175
  473.0000      0.0175
  474.0000      0.0174
  475.0000      0.0174
  476.0000      0.0173
  477.0000      0.0172
  478.0000      0.0173
  479.0000      0.0172
  480.0000      0.0172
  481.0000      0.0173
  482.0000      0.0175
  483.0000      0.0176
  484.0000      0.0177
  485.0000      0.0177
  486.0000      0.0177
  487.0000      0.0176
  488.0000      0.0176
  489.0000      0.0175
  490.0000      0.0174
  491.0000      0.0174
  492.0000      0.0174
  493.0000      0.0173
  494.0000      0.0172
  495.0000      0.0172
  496.0000      0.0171
  497.0000      0.0170
  498.0000      0.0169
  499.0000      0.0168
  500.0000      0.0167
  501.0000      0.0165
  502.0000      0.0164
  503.0000      0.0164
  504.0000      0.0162
  505.0000      0.0162
  506.0000      0.0161
  507.0000      0.0159
  508.0000      0.0158
  509.0000      0.0155
  510.0000      0.0153
  511.0000      0.0151
  512.0000      0.0150
  513.0000      0.0148
  514.0000      0.0147
  515.0000      0.0146
  516.0000      0.0145
  517.0000      0.0144
  518.0000      0.0143
  519.0000      0.0143
  520.0000      0.0143
  521.0000      0.0144
  522.0000      0.0146
  523.0000      0.0149
  524.0000      0.0152
  525.0000      0.0155
  526.0000      0.0157
  527.0000      0.0158
  528.0000      0.0158
  529.0000      0.0159
  530.0000      0.0160
  531.0000      0.0160
  532.0000      0.0161
  533.0000      0.0161
  534.0000      0.0162
  535.0000      0.0162
  536.0000      0.0163
  537.0000      0.0164
  538.0000      0.0165
  539.0000      0.0165
  540.0000      0.0166
  541.0000      0.0167
  542.0000      0.0169
  543.0000      0.0172
  544.0000      0.0175
  545.0000      0.0179
  546.0000      0.0181
  547.0000      0.0184
  548.0000      0.0186
  549.0000      0.0188
  550.0000      0.0190
  551.0000      0.0191
  552.0000      0.0192
  553.0000      0.0193
  554.0000      0.0193
  555.0000      0.0193
  556.0000      0.0194
  557.0000      0.0204
  558.0000      0.0203
  559.0000      0.0201
  560.0000      0.0199
  561.0000      0.0197
  562.0000      0.0196
  563.0000      0.0193
  564.0000      0.0191
  565.0000      0.0189
  566.0000      0.0186
  567.0000      0.0184
  568.0000      0.0182
  569.0000      0.0180
  570.0000      0.0178
  571.0000      0.0176
  572.0000      0.0174
  573.0000      0.0171
  574.0000      0.0169
  575.0000      0.0167
  576.0000      0.0166
  577.0000      0.0165
  578.0000      0.0163
  579.0000      0.0162
  580.0000      0.0160
  581.0000      0.0159
  582.0000      0.0157
  583.0000      0.0155
  584.0000      0.0153
  585.0000      0.0150
  586.0000      0.0146
  587.0000      0.0142
  588.0000      0.0139
  589.0000      0.0136
  590.0000      0.0134
  591.0000      0.0132
  592.0000      0.0131
  593.0000      0.0130
  594.0000      0.0129
  595.0000      0.0127
  596.0000      0.0125
  597.0000      0.0123
  598.0000      0.0121
  599.0000      0.0118
  600.0000      0.0115
  601.0000      0.0113
  602.0000      0.0110
  603.0000      0.0108
  604.0000      0.0106
  605.0000      0.0104
  606.0000      0.0103
  607.0000      0.0103
  608.0000      0.0103
  609.0000      0.0104
  610.0000      0.0106
  611.0000      0.0108
  612.0000      0.0110
  613.0000      0.0111
  614.0000      0.0112
  615.0000      0.0113
  616.0000      0.0113
  617.0000      0.0113
  618.0000      0.0113
  619.0000      0.0113
  620.0000      0.0113
  621.0000      0.0113
  622.0000      0.0112
  623.0000      0.0112
  624.0000      0.0112
  625.0000      0.0112
  626.0000      0.0112
  627.0000      0.0112
  628.0000      0.0112
  629.0000      0.0112
  630.0000      0.0112
  631.0000      0.0112
  632.0000      0.0112
  633.0000      0.0111
  634.0000      0.0111
  635.0000      0.0111
  636.0000      0.0110
  637.0000      0.0110
  638.0000      0.0108
  639.0000      0.0108
  640.0000      0.0107
  641.0000      0.0107
  642.0000      0.0107
  643.0000      0.0106
  644.0000      0.0106
  645.0000      0.0105
  646.0000      0.0104
  647.0000      0.0102
  648.0000      0.0100
  649.0000      0.0097
  650.0000      0.0094
  651.0000      0.0092
  652.0000      0.0089
  653.0000      0.0088
  654.0000      0.0086
  655.0000      0.0085
  656.0000      0.0085
  657.0000      0.0085
  658.0000      0.0085
  659.0000      0.0085
  660.0000      0.0085
  661.0000      0.0085
  662.0000      0.0086
  663.0000      0.0085
  664.0000      0.0085
  665.0000      0.0084
  666.0000      0.0084
  667.0000      0.0084
  668.0000      0.0085
  669.0000      0.0085
  670.0000      0.0086
  671.0000      0.0086
  672.0000      0.0086
  673.0000      0.0086
  674.0000      0.0086
  675.0000      0.0086
  676.0000      0.0086
  677.0000      0.0087
  678.0000      0.0087
  679.0000      0.0087
  680.0000      0.0087
  681.0000      0.0087
  682.0000      0.0087
  683.0000      0.0087
  684.0000      0.0087
  685.0000      0.0087
  686.0000      0.0086
  687.0000      0.0086
  688.0000      0.0086
  689.0000      0.0086
  690.0000      0.0085
  691.0000      0.0086
  692.0000      0.0086
  693.0000      0.0085
  694.0000      0.0085
  695.0000      0.0084
  696.0000      0.0084
  697.0000      0.0084
  698.0000      0.0084
  699.0000      0.0084
  700.0000      0.0084
  701.0000      0.0084
  702.0000      0.0084
  703.0000      0.0084
  704.0000      0.0084
  705.0000      0.0085
  706.0000      0.0085
  707.0000      0.0085
  708.0000      0.0085
  709.0000      0.0086
  710.0000      0.0086
  711.0000      0.0086
  712.0000      0.0086
  713.0000      0.0086
  714.0000      0.0086
  715.0000      0.0086
  716.0000      0.0086
  717.0000      0.0085
  718.0000      0.0085
  719.0000      0.0085
  720.0000      0.0085
  721.0000      0.0085
  722.0000      0.0084
  723.0000      0.0084
  724.0000      0.0084
  725.0000      0.0084
  726.0000      0.0084
  727.0000      0.0084
  728.0000      0.0083
  729.0000      0.0083
  730.0000      0.0083
  731.0000      0.0082
  732.0000      0.0082
  733.0000      0.0081
  734.0000      0.0081
  735.0000      0.0081
  736.0000      0.0082
  737.0000      0.0082
  738.0000      0.0081
  739.0000      0.0081
  740.0000      0.0081
  741.0000      0.0081
  742.0000      0.0081
  743.0000      0.0082
  744.0000      0.0082
  745.0000      0.0082
  746.0000      0.0082
  747.0000      0.0082
  748.0000      0.0082
  749.0000      0.0082
  750.0000      0.0083
  751.0000      0.0083
  752.0000      0.0083
  753.0000      0.0083
  754.0000      0.0083
  755.0000      0.0084
  756.0000      0.0084
  757.0000      0.0084
  758.0000      0.0084
  759.0000      0.0084
  760.0000      0.0085
  761.0000      0.0085
  762.0000      0.0085
  763.0000      0.0084
  764.0000      0.0084
  765.0000      0.0084
  766.0000      0.0085
  767.0000      0.0085
  768.0000      0.0086
  769.0000      0.0086
  770.0000      0.0087
  771.0000      0.0087
  772.0000      0.0087
  773.0000      0.0086
  774.0000      0.0087
  775.0000      0.0086
  776.0000      0.0086
  777.0000      0.0086
  778.0000      0.0086
  779.0000      0.0086
  780.0000      0.0088
  781.0000      0.0089
  782.0000      0.0090
  783.0000      0.0090
  784.0000      0.0090
  785.0000      0.0090
  786.0000      0.0090
  787.0000      0.0089
  788.0000      0.0088
  789.0000      0.0087
  790.0000      0.0085
  791.0000      0.0084
  792.0000      0.0083
  793.0000      0.0082
  794.0000      0.0081
  795.0000      0.0080
  796.0000      0.0079
  797.0000      0.0078
  798.0000      0.0077
  799.0000      0.0076
  800.0000      0.0075
