Start Wavelength:    200.0000
End Wavelength:    800.0000
Read Mode:  ABS
Read Average:      0.1000
Nanometer Interval:      1.0000
Time:      0.0000

  200.0000      1.3635
  201.0000      1.2560
  202.0000      1.2141
  203.0000      1.1605
  204.0000      1.1115
  205.0000      1.0683
  206.0000      1.0352
  207.0000      1.0033
  208.0000      0.9748
  209.0000      0.9426
  210.0000      0.9179
  211.0000      0.8941
  212.0000      0.8682
  213.0000      0.8471
  214.0000      0.8275
  215.0000      0.8078
  216.0000      0.7890
  217.0000      0.7718
  218.0000      0.7556
  219.0000      0.7390
  220.0000      0.7247
  221.0000      0.7097
  222.0000      0.6963
  223.0000      0.6827
  224.0000      0.6705
  225.0000      0.6573
  226.0000      0.6438
  227.0000      0.6328
  228.0000      0.6226
  229.0000      0.6097
  230.0000      0.5987
  231.0000      0.5892
  232.0000      0.5780
  233.0000      0.5665
  234.0000      0.5562
  235.0000      0.5478
  236.0000      0.5382
  237.0000      0.5288
  238.0000      0.5209
  239.0000      0.5133
  240.0000      0.5061
  241.0000      0.4990
  242.0000      0.4940
  243.0000      0.4884
  244.0000      0.4827
  245.0000      0.4778
  246.0000      0.4744
  247.0000      0.4697
  248.0000      0.4646
  249.0000      0.4615
  250.0000      0.4578
  251.0000      0.4540
  252.0000      0.4502
  253.0000      0.4476
  254.0000      0.4445
  255.0000      0.4410
  256.0000      0.4383
  257.0000      0.4360
  258.0000      0.4327
  259.0000      0.4301
  260.0000      0.4273
  261.0000      0.4241
  262.0000      0.4201
  263.0000      0.4166
  264.0000      0.4143
  265.0000      0.4098
  266.0000      0.4062
  267.0000      0.4019
  268.0000      0.3979
  269.0000      0.3939
  270.0000      0.3885
  271.0000      0.3843
  272.0000      0.3796
  273.0000      0.3746
  274.0000      0.3692
  275.0000      0.3646
  276.0000      0.3602
  277.0000      0.3545
  278.0000      0.3498
  279.0000      0.3446
  280.0000      0.3385
  281.0000      0.3337
  282.0000      0.3286
  283.0000      0.3229
  284.0000      0.3169
  285.0000      0.3117
  286.0000      0.3071
  287.0000      0.3013
  288.0000      0.2959
  289.0000      0.2910
  290.0000      0.2863
  291.0000      0.2803
  292.0000      0.2765
  293.0000      0.2710
  294.0000      0.2656
  295.0000      0.2607
  296.0000      0.2569
  297.0000      0.2526
  298.0000      0.2472
  299.0000      0.2433
  300.0000      0.2401
  301.0000      0.2358
  302.0000      0.2321
  303.0000      0.2293
  304.0000      0.2250
  305.0000      0.2219
  306.0000      0.2192
  307.0000      0.2162
  308.0000      0.2126
  309.0000      0.2096
  310.0000      0.2078
  311.0000      0.2049
  312.0000      0.2013
  313.0000      0.1987
  314.0000      0.1965
  315.0000      0.1939
  316.0000      0.1914
  317.0000      0.1893
  318.0000      0.1872
  319.0000      0.1855
  320.0000      0.1831
  321.0000      0.1824
  322.0000      0.1788
  323.0000      0.1768
  324.0000      0.1740
  325.0000      0.1724
  326.0000      0.1706
  327.0000      0.1680
  328.0000      0.1669
  329.0000      0.1648
  330.0000      0.1624
  331.0000      0.1610
  332.0000      0.1594
  333.0000      0.1577
  334.0000      0.1556
  335.0000      0.1537
  336.0000      0.1523
  337.0000      0.1506
  338.0000      0.1483
  339.0000      0.1471
  340.0000      0.1455
  341.0000      0.1431
  342.0000      0.1423
  343.0000      0.1407
  344.0000      0.1388
  345.0000      0.1370
  346.0000      0.1367
  347.0000      0.1350
  348.0000      0.1335
  349.0000      0.1322
  350.0000      0.1311
  351.0000      0.1299
  352.0000      0.1285
  353.0000      0.1271
  354.0000      0.1262
  355.0000      0.1249
  356.0000      0.1244
  357.0000      0.1223
  358.0000      0.1218
  359.0000      0.1219
  360.0000      0.1195
  361.0000      0.1179
  362.0000      0.1170
  363.0000      0.1156
  364.0000      0.1154
  365.0000      0.1141
  366.0000      0.1139
  367.0000      0.1109
  368.0000      0.1109
  369.0000      0.1111
  370.0000      0.1089
  371.0000      0.1087
  372.0000      0.1069
  373.0000      0.1077
  374.0000      0.1057
  375.0000      0.1040
  376.0000      0.1040
  377.0000      0.1035
  378.0000      0.1030
  379.0000      0.1016
  380.0000      0.1001
  381.0000      0.0997
  382.0000      0.0993
  383.0000      0.0988
  384.0000      0.0977
  385.0000      0.0971
  386.0000      0.0959
  387.0000      0.0952
  388.0000      0.0960
  389.0000      0.0947
  390.0000      0.0932
  391.0000      0.0935
  392.0000      0.0926
  393.0000      0.0924
  394.0000      0.0914
  395.0000      0.0906
  396.0000      0.0903
  397.0000      0.0900
  398.0000      0.0894
  399.0000      0.0895
  400.0000      0.0884
  401.0000      0.0881
  402.0000      0.0872
  403.0000      0.0874
  404.0000      0.0865
  405.0000      0.0857
  406.0000      0.0855
  407.0000      0.0856
  408.0000      0.0850
  409.0000      0.0839
  410.0000      0.0842
  411.0000      0.0834
  412.0000      0.0830
  413.0000      0.0825
  414.0000      0.0820
  415.0000      0.0815
  416.0000      0.0829
  417.0000      0.0829
  418.0000      0.0826
  419.0000      0.0824
  420.0000      0.0819
  421.0000      0.0816
  422.0000      0.0813
  423.0000      0.0810
  424.0000      0.0808
  425.0000      0.0804
  426.0000      0.0802
  427.0000      0.0797
  428.0000      0.0795
  429.0000      0.0791
  430.0000      0.0787
  431.0000      0.0782
  432.0000      0.0778
  433.0000      0.0773
  434.0000      0.0769
  435.0000      0.0764
  436.0000      0.0761
  437.0000      0.0754
  438.0000      0.0748
  439.0000      0.0741
  440.0000      0.0734
  441.0000      0.0725
  442.0000      0.0717
  443.0000      0.0710
  444.0000      0.0703
  445.0000      0.0696
  446.0000      0.0689
  447.0000      0.0684
  448.0000      0.0676
  449.0000      0.0669
  450.0000      0.0663
  451.0000      0.0658
  452.0000      0.0652
  453.0000      0.0645
  454.0000      0.0638
  455.0000      0.0632
  456.0000      0.0627
  457.0000      0.0624
  458.0000      0.0621
  459.0000      0.0619
  460.0000      0.0615
  461.0000      0.0614
  462.0000      0.0613
  463.0000      0.0612
  464.0000      0.0611
  465.0000      0.0610
  466.0000      0.0609
  467.0000      0.0608
  468.0000      0.0607
  469.0000      0.0606
  470.0000      0.0603
  471.0000      0.0601
  472.0000      0.0599
  473.0000      0.0596
  474.0000      0.0595
  475.0000      0.0594
  476.0000      0.0592
  477.0000      0.0591
  478.0000      0.0589
  479.0000      0.0589
  480.0000      0.0588
  481.0000      0.0588
  482.0000      0.0588
  483.0000      0.0587
  484.0000      0.0586
  485.0000      0.0584
  486.0000      0.0582
  487.0000      0.0580
  488.0000      0.0578
  489.0000      0.0575
  490.0000      0.0572
  491.0000      0.0569
  492.0000      0.0565
  493.0000      0.0560
  494.0000      0.0557
  495.0000      0.0553
  496.0000      0.0549
  497.0000      0.0545
  498.0000      0.0542
  499.0000      0.0538
  500.0000      0.0535
  501.0000      0.0534
  502.0000      0.0532
  503.0000      0.0528
  504.0000      0.0525
  505.0000      0.0521
  506.0000      0.0516
  507.0000      0.0513
  508.0000      0.0508
  509.0000      0.0505
  510.0000      0.0501
  511.0000      0.0497
  512.0000      0.0494
  513.0000      0.0491
  514.0000      0.0488
  515.0000      0.0483
  516.0000      0.0479
  517.0000      0.0474
  518.0000      0.0470
  519.0000      0.0467
  520.0000      0.0463
  521.0000      0.0460
  522.0000      0.0457
  523.0000      0.0454
  524.0000      0.0451
  525.0000      0.0448
  526.0000      0.0447
  527.0000      0.0443
  528.0000      0.0441
  529.0000      0.0437
  530.0000      0.0434
  531.0000      0.0432
  532.0000      0.0429
  533.0000      0.0427
  534.0000      0.0426
  535.0000      0.0424
  536.0000      0.0422
  537.0000      0.0420
  538.0000      0.0418
  539.0000      0.0416
  540.0000      0.0414
  541.0000      0.0413
  542.0000      0.0411
  543.0000      0.0409
  544.0000      0.0408
  545.0000      0.0406
  546.0000      0.0405
  547.0000      0.0403
  548.0000      0.0401
  549.0000      0.0400
  550.0000      0.0398
  551.0000      0.0397
  552.0000      0.0397
  553.0000      0.0396
  554.0000      0.0396
  555.0000      0.0397
  556.0000      0.0400
  557.0000      0.0395
  558.0000      0.0390
  559.0000      0.0386
  560.0000      0.0383
  561.0000      0.0381
  562.0000      0.0377
  563.0000      0.0374
  564.0000      0.0372
  565.0000      0.0372
  566.0000      0.0371
  567.0000      0.0370
  568.0000      0.0369
  569.0000      0.0369
  570.0000      0.0367
  571.0000      0.0366
  572.0000      0.0364
  573.0000      0.0364
  574.0000      0.0365
  575.0000      0.0364
  576.0000      0.0365
  577.0000      0.0365
  578.0000      0.0365
  579.0000      0.0366
  580.0000      0.0366
  581.0000      0.0365
  582.0000      0.0364
  583.0000      0.0363
  584.0000      0.0363
  585.0000      0.0363
  586.0000      0.0363
  587.0000      0.0363
  588.0000      0.0364
  589.0000      0.0367
  590.0000      0.0373
  591.0000      0.0382
  592.0000      0.0392
  593.0000      0.0402
  594.0000      0.0412
  595.0000      0.0423
  596.0000      0.0431
  597.0000      0.0432
  598.0000      0.0430
  599.0000      0.0428
  600.0000      0.0427
  601.0000      0.0429
  602.0000      0.0431
  603.0000      0.0434
  604.0000      0.0435
  605.0000      0.0435
  606.0000      0.0434
  607.0000      0.0433
  608.0000      0.0431
  609.0000      0.0429
  610.0000      0.0425
  611.0000      0.0420
  612.0000      0.0411
  613.0000      0.0395
  614.0000      0.0376
  615.0000      0.0357
  616.0000      0.0347
  617.0000      0.0342
  618.0000      0.0341
  619.0000      0.0340
  620.0000      0.0340
  621.0000      0.0340
  622.0000      0.0340
  623.0000      0.0340
  624.0000      0.0341
  625.0000      0.0341
  626.0000      0.0341
  627.0000      0.0340
  628.0000      0.0339
  629.0000      0.0337
  630.0000      0.0336
  631.0000      0.0335
  632.0000      0.0335
  633.0000      0.0334
  634.0000      0.0334
  635.0000      0.0333
  636.0000      0.0332
  637.0000      0.0330
  638.0000      0.0329
  639.0000      0.0328
  640.0000      0.0328
  641.0000      0.0326
  642.0000      0.0324
  643.0000      0.0323
  644.0000      0.0324
  645.0000      0.0323
  646.0000      0.0322
  647.0000      0.0320
  648.0000      0.0317
  649.0000      0.0313
  650.0000      0.0311
  651.0000      0.0309
  652.0000      0.0308
  653.0000      0.0308
  654.0000      0.0307
  655.0000      0.0307
  656.0000      0.0308
  657.0000      0.0308
  658.0000      0.0309
  659.0000      0.0309
  660.0000      0.0309
  661.0000      0.0310
  662.0000      0.0311
  663.0000      0.0312
  664.0000      0.0314
  665.0000      0.0316
  666.0000      0.0319
  667.0000      0.0322
  668.0000      0.0326
  669.0000      0.0328
  670.0000      0.0331
  671.0000      0.0334
  672.0000      0.0335
  673.0000      0.0336
  674.0000      0.0338
  675.0000      0.0339
  676.0000      0.0340
  677.0000      0.0341
  678.0000      0.0342
  679.0000      0.0344
  680.0000      0.0344
  681.0000      0.0344
  682.0000      0.0345
  683.0000      0.0344
  684.0000      0.0343
  685.0000      0.0341
  686.0000      0.0338
  687.0000      0.0336
  688.0000      0.0332
  689.0000      0.0329
  690.0000      0.0325
  691.0000      0.0321
  692.0000      0.0316
  693.0000      0.0312
  694.0000      0.0308
  695.0000      0.0303
  696.0000      0.0300
  697.0000      0.0296
  698.0000      0.0293
  699.0000      0.0290
  700.0000      0.0288
  701.0000      0.0286
  702.0000      0.0285
  703.0000      0.0283
  704.0000      0.0280
  705.0000      0.0279
  706.0000      0.0277
  707.0000      0.0276
  708.0000      0.0274
  709.0000      0.0273
  710.0000      0.0272
  711.0000      0.0271
  712.0000      0.0270
  713.0000      0.0269
  714.0000      0.0268
  715.0000      0.0268
  716.0000      0.0267
  717.0000      0.0266
  718.0000      0.0265
  719.0000      0.0264
  720.0000      0.0264
  721.0000      0.0262
  722.0000      0.0261
  723.0000      0.0260
  724.0000      0.0259
  725.0000      0.0258
  726.0000      0.0257
  727.0000      0.0256
  728.0000      0.0255
  729.0000      0.0254
  730.0000      0.0253
  731.0000      0.0253
  732.0000      0.0253
  733.0000      0.0252
  734.0000      0.0251
  735.0000      0.0250
  736.0000      0.0243
  737.0000      0.0242
  738.0000      0.0242
  739.0000      0.0241
  740.0000      0.0241
  741.0000      0.0241
  742.0000      0.0241
  743.0000      0.0240
  744.0000      0.0241
  745.0000      0.0241
  746.0000      0.0240
  747.0000      0.0240
  748.0000      0.0240
  749.0000      0.0240
  750.0000      0.0239
  751.0000      0.0239
  752.0000      0.0238
  753.0000      0.0238
  754.0000      0.0238
  755.0000      0.0238
  756.0000      0.0238
  757.0000      0.0239
  758.0000      0.0238
  759.0000      0.0239
  760.0000      0.0238
  761.0000      0.0238
  762.0000      0.0238
  763.0000      0.0237
  764.0000      0.0237
  765.0000      0.0237
  766.0000      0.0237
  767.0000      0.0237
  768.0000      0.0237
  769.0000      0.0236
  770.0000      0.0236
  771.0000      0.0235
  772.0000      0.0235
  773.0000      0.0234
  774.0000      0.0232
  775.0000      0.0231
  776.0000      0.0231
  777.0000      0.0231
  778.0000      0.0230
  779.0000      0.0230
  780.0000      0.0230
  781.0000      0.0231
  782.0000      0.0231
  783.0000      0.0231
  784.0000      0.0232
  785.0000      0.0232
  786.0000      0.0232
  787.0000      0.0231
  788.0000      0.0231
  789.0000      0.0231
  790.0000      0.0231
  791.0000      0.0231
  792.0000      0.0231
  793.0000      0.0231
  794.0000      0.0230
  795.0000      0.0230
  796.0000      0.0230
  797.0000      0.0230
  798.0000      0.0230
  799.0000      0.0230
  800.0000      0.0229
