Start Wavelength:    200.0000
End Wavelength:    800.0000
Read Mode:  ABS
Read Average:      0.1000
Nanometer Interval:      1.0000
Time:      0.0000

  200.0000     -0.0010
  201.0000     -0.0004
  202.0000     -0.0017
  203.0000     -0.0007
  204.0000     -0.0002
  205.0000     -0.0004
  206.0000      0.0001
  207.0000     -0.0007
  208.0000     -0.0003
  209.0000     -0.0005
  210.0000     -0.0007
  211.0000     -0.0005
  212.0000     -0.0006
  213.0000     -0.0006
  214.0000      0.0000
  215.0000     -0.0005
  216.0000     -0.0004
  217.0000     -0.0003
  218.0000     -0.0005
  219.0000     -0.0000
  220.0000     -0.0002
  221.0000     -0.0002
  222.0000     -0.0003
  223.0000     -0.0002
  224.0000     -0.0003
  225.0000     -0.0003
  226.0000     -0.0002
  227.0000     -0.0005
  228.0000      0.0001
  229.0000      0.0001
  230.0000     -0.0003
  231.0000     -0.0001
  232.0000     -0.0000
  233.0000     -0.0002
  234.0000     -0.0002
  235.0000     -0.0003
  236.0000     -0.0002
  237.0000     -0.0003
  238.0000     -0.0003
  239.0000     -0.0008
  240.0000     -0.0006
  241.0000     -0.0003
  242.0000     -0.0007
  243.0000     -0.0001
  244.0000     -0.0009
  245.0000     -0.0004
  246.0000     -0.0001
  247.0000     -0.0003
  248.0000     -0.0004
  249.0000     -0.0007
  250.0000     -0.0004
  251.0000     -0.0005
  252.0000     -0.0006
  253.0000     -0.0009
  254.0000     -0.0009
  255.0000     -0.0006
  256.0000     -0.0004
  257.0000     -0.0009
  258.0000     -0.0007
  259.0000     -0.0007
  260.0000     -0.0005
  261.0000     -0.0003
  262.0000     -0.0010
  263.0000     -0.0008
  264.0000     -0.0007
  265.0000     -0.0005
  266.0000     -0.0011
  267.0000     -0.0009
  268.0000     -0.0007
  269.0000     -0.0008
  270.0000     -0.0008
  271.0000     -0.0005
  272.0000     -0.0008
  273.0000     -0.0005
  274.0000      0.0001
  275.0000     -0.0006
  276.0000     -0.0005
  277.0000     -0.0007
  278.0000     -0.0003
  279.0000     -0.0003
  280.0000     -0.0008
  281.0000     -0.0001
  282.0000     -0.0010
  283.0000     -0.0002
  284.0000     -0.0003
  285.0000     -0.0006
  286.0000     -0.0001
  287.0000     -0.0002
  288.0000     -0.0002
  289.0000     -0.0002
  290.0000      0.0001
  291.0000     -0.0004
  292.0000     -0.0002
  293.0000     -0.0002
  294.0000     -0.0007
  295.0000     -0.0006
  296.0000     -0.0002
  297.0000     -0.0004
  298.0000     -0.0007
  299.0000     -0.0006
  300.0000     -0.0010
  301.0000     -0.0002
  302.0000     -0.0007
  303.0000     -0.0005
  304.0000     -0.0010
  305.0000     -0.0003
  306.0000     -0.0003
  307.0000     -0.0004
  308.0000     -0.0008
  309.0000     -0.0003
  310.0000     -0.0004
  311.0000     -0.0006
  312.0000     -0.0005
  313.0000     -0.0012
  314.0000     -0.0004
  315.0000     -0.0004
  316.0000     -0.0006
  317.0000     -0.0008
  318.0000     -0.0006
  319.0000     -0.0000
  320.0000     -0.0002
  321.0000     -0.0004
  322.0000     -0.0005
  323.0000      0.0002
  324.0000     -0.0000
  325.0000     -0.0006
  326.0000     -0.0004
  327.0000     -0.0002
  328.0000     -0.0004
  329.0000     -0.0004
  330.0000     -0.0004
  331.0000     -0.0004
  332.0000     -0.0002
  333.0000      0.0001
  334.0000      0.0001
  335.0000     -0.0005
  336.0000     -0.0001
  337.0000     -0.0001
  338.0000     -0.0002
  339.0000     -0.0003
  340.0000     -0.0006
  341.0000     -0.0000
  342.0000     -0.0004
  343.0000     -0.0005
  344.0000     -0.0003
  345.0000     -0.0008
  346.0000     -0.0003
  347.0000     -0.0002
  348.0000     -0.0005
  349.0000     -0.0007
  350.0000     -0.0005
  351.0000     -0.0004
  352.0000     -0.0003
  353.0000     -0.0006
  354.0000     -0.0004
  355.0000     -0.0007
  356.0000     -0.0007
  357.0000     -0.0011
  358.0000     -0.0009
  359.0000      0.0006
  360.0000     -0.0008
  361.0000      0.0008
  362.0000      0.0004
  363.0000      0.0004
  364.0000      0.0015
  365.0000      0.0011
  366.0000      0.0005
  367.0000     -0.0004
  368.0000      0.0005
  369.0000      0.0007
  370.0000     -0.0010
  371.0000     -0.0000
  372.0000      0.0009
  373.0000      0.0003
  374.0000      0.0003
  375.0000      0.0003
  376.0000      0.0001
  377.0000      0.0003
  378.0000      0.0004
  379.0000      0.0011
  380.0000     -0.0000
  381.0000      0.0006
  382.0000     -0.0000
  383.0000      0.0007
  384.0000      0.0002
  385.0000      0.0002
  386.0000      0.0004
  387.0000     -0.0002
  388.0000      0.0009
  389.0000      0.0004
  390.0000     -0.0001
  391.0000      0.0001
  392.0000     -0.0003
  393.0000      0.0004
  394.0000     -0.0002
  395.0000     -0.0001
  396.0000     -0.0002
  397.0000      0.0003
  398.0000     -0.0001
  399.0000      0.0003
  400.0000      0.0001
  401.0000     -0.0001
  402.0000     -0.0001
  403.0000      0.0004
  404.0000      0.0001
  405.0000     -0.0009
  406.0000     -0.0003
  407.0000      0.0005
  408.0000     -0.0002
  409.0000     -0.0003
  410.0000      0.0002
  411.0000      0.0001
  412.0000     -0.0001
  413.0000      0.0002
  414.0000     -0.0004
  415.0000     -0.0001
  416.0000     -0.0004
  417.0000     -0.0003
  418.0000     -0.0004
  419.0000     -0.0002
  420.0000     -0.0004
  421.0000     -0.0004
  422.0000     -0.0003
  423.0000     -0.0003
  424.0000     -0.0004
  425.0000     -0.0004
  426.0000     -0.0002
  427.0000     -0.0003
  428.0000     -0.0003
  429.0000     -0.0003
  430.0000     -0.0004
  431.0000     -0.0004
  432.0000     -0.0004
  433.0000     -0.0003
  434.0000     -0.0004
  435.0000     -0.0005
  436.0000     -0.0003
  437.0000     -0.0004
  438.0000     -0.0004
  439.0000     -0.0005
  440.0000     -0.0005
  441.0000     -0.0006
  442.0000     -0.0005
  443.0000     -0.0005
  444.0000     -0.0005
  445.0000     -0.0006
  446.0000     -0.0006
  447.0000     -0.0005
  448.0000     -0.0005
  449.0000     -0.0007
  450.0000     -0.0007
  451.0000     -0.0006
  452.0000     -0.0007
  453.0000     -0.0007
  454.0000     -0.0008
  455.0000     -0.0007
  456.0000     -0.0008
  457.0000     -0.0008
  458.0000     -0.0008
  459.0000     -0.0007
  460.0000     -0.0008
  461.0000     -0.0008
  462.0000     -0.0007
  463.0000     -0.0006
  464.0000     -0.0006
  465.0000     -0.0005
  466.0000     -0.0005
  467.0000     -0.0004
  468.0000     -0.0004
  469.0000     -0.0003
  470.0000     -0.0003
  471.0000     -0.0003
  472.0000     -0.0004
  473.0000     -0.0004
  474.0000     -0.0004
  475.0000     -0.0004
  476.0000     -0.0005
  477.0000     -0.0004
  478.0000     -0.0005
  479.0000     -0.0005
  480.0000     -0.0006
  481.0000     -0.0005
  482.0000     -0.0006
  483.0000     -0.0005
  484.0000     -0.0005
  485.0000     -0.0006
  486.0000     -0.0006
  487.0000     -0.0007
  488.0000     -0.0007
  489.0000     -0.0007
  490.0000     -0.0007
  491.0000     -0.0006
  492.0000     -0.0006
  493.0000     -0.0007
  494.0000     -0.0007
  495.0000     -0.0007
  496.0000     -0.0007
  497.0000     -0.0007
  498.0000     -0.0007
  499.0000     -0.0007
  500.0000     -0.0008
  501.0000     -0.0008
  502.0000     -0.0008
  503.0000     -0.0008
  504.0000     -0.0008
  505.0000     -0.0008
  506.0000     -0.0009
  507.0000     -0.0008
  508.0000     -0.0008
  509.0000     -0.0008
  510.0000     -0.0008
  511.0000     -0.0008
  512.0000     -0.0008
  513.0000     -0.0008
  514.0000     -0.0008
  515.0000     -0.0008
  516.0000     -0.0008
  517.0000     -0.0009
  518.0000     -0.0009
  519.0000     -0.0008
  520.0000     -0.0008
  521.0000     -0.0009
  522.0000     -0.0009
  523.0000     -0.0009
  524.0000     -0.0009
  525.0000     -0.0009
  526.0000     -0.0009
  527.0000     -0.0009
  528.0000     -0.0009
  529.0000     -0.0009
  530.0000     -0.0009
  531.0000     -0.0010
  532.0000     -0.0009
  533.0000     -0.0010
  534.0000     -0.0009
  535.0000     -0.0009
  536.0000     -0.0009
  537.0000     -0.0009
  538.0000     -0.0009
  539.0000     -0.0009
  540.0000     -0.0010
  541.0000     -0.0010
  542.0000     -0.0010
  543.0000     -0.0010
  544.0000     -0.0010
  545.0000     -0.0010
  546.0000     -0.0010
  547.0000     -0.0010
  548.0000     -0.0010
  549.0000     -0.0011
  550.0000     -0.0011
  551.0000     -0.0011
  552.0000     -0.0011
  553.0000     -0.0011
  554.0000     -0.0012
  555.0000     -0.0011
  556.0000     -0.0012
  557.0000     -0.0005
  558.0000     -0.0005
  559.0000     -0.0005
  560.0000     -0.0005
  561.0000     -0.0006
  562.0000     -0.0006
  563.0000     -0.0006
  564.0000     -0.0007
  565.0000     -0.0007
  566.0000     -0.0007
  567.0000     -0.0007
  568.0000     -0.0007
  569.0000     -0.0007
  570.0000     -0.0008
  571.0000     -0.0008
  572.0000     -0.0008
  573.0000     -0.0008
  574.0000     -0.0009
  575.0000     -0.0009
  576.0000     -0.0009
  577.0000     -0.0009
  578.0000     -0.0009
  579.0000     -0.0009
  580.0000     -0.0009
  581.0000     -0.0009
  582.0000     -0.0009
  583.0000     -0.0009
  584.0000     -0.0009
  585.0000     -0.0009
  586.0000     -0.0009
  587.0000     -0.0009
  588.0000     -0.0009
  589.0000     -0.0009
  590.0000     -0.0009
  591.0000     -0.0009
  592.0000     -0.0009
  593.0000     -0.0009
  594.0000     -0.0009
  595.0000     -0.0009
  596.0000     -0.0009
  597.0000     -0.0009
  598.0000     -0.0009
  599.0000     -0.0009
  600.0000     -0.0009
  601.0000     -0.0009
  602.0000     -0.0009
  603.0000     -0.0009
  604.0000     -0.0010
  605.0000     -0.0009
  606.0000     -0.0009
  607.0000     -0.0009
  608.0000     -0.0010
  609.0000     -0.0009
  610.0000     -0.0009
  611.0000     -0.0010
  612.0000     -0.0010
  613.0000     -0.0009
  614.0000     -0.0009
  615.0000     -0.0009
  616.0000     -0.0009
  617.0000     -0.0009
  618.0000     -0.0009
  619.0000     -0.0010
  620.0000     -0.0010
  621.0000     -0.0009
  622.0000     -0.0009
  623.0000     -0.0009
  624.0000     -0.0009
  625.0000     -0.0009
  626.0000     -0.0009
  627.0000     -0.0009
  628.0000     -0.0009
  629.0000     -0.0009
  630.0000     -0.0008
  631.0000     -0.0008
  632.0000     -0.0008
  633.0000     -0.0008
  634.0000     -0.0008
  635.0000     -0.0008
  636.0000     -0.0007
  637.0000     -0.0008
  638.0000     -0.0007
  639.0000     -0.0007
  640.0000     -0.0007
  641.0000     -0.0007
  642.0000     -0.0007
  643.0000     -0.0007
  644.0000     -0.0007
  645.0000     -0.0007
  646.0000     -0.0007
  647.0000     -0.0007
  648.0000     -0.0007
  649.0000     -0.0007
  650.0000     -0.0007
  651.0000     -0.0007
  652.0000     -0.0007
  653.0000     -0.0007
  654.0000     -0.0007
  655.0000     -0.0007
  656.0000     -0.0007
  657.0000     -0.0007
  658.0000     -0.0007
  659.0000     -0.0007
  660.0000     -0.0006
  661.0000     -0.0006
  662.0000     -0.0007
  663.0000     -0.0006
  664.0000     -0.0006
  665.0000     -0.0006
  666.0000     -0.0006
  667.0000     -0.0006
  668.0000     -0.0006
  669.0000     -0.0006
  670.0000     -0.0006
  671.0000     -0.0006
  672.0000     -0.0006
  673.0000     -0.0006
  674.0000     -0.0006
  675.0000     -0.0006
  676.0000     -0.0006
  677.0000     -0.0006
  678.0000     -0.0005
  679.0000     -0.0006
  680.0000     -0.0005
  681.0000     -0.0006
  682.0000     -0.0005
  683.0000     -0.0005
  684.0000     -0.0006
  685.0000     -0.0006
  686.0000     -0.0006
  687.0000     -0.0006
  688.0000     -0.0006
  689.0000     -0.0006
  690.0000     -0.0006
  691.0000     -0.0006
  692.0000     -0.0006
  693.0000     -0.0006
  694.0000     -0.0006
  695.0000     -0.0006
  696.0000     -0.0006
  697.0000     -0.0006
  698.0000     -0.0006
  699.0000     -0.0006
  700.0000     -0.0006
  701.0000     -0.0006
  702.0000     -0.0005
  703.0000     -0.0006
  704.0000     -0.0005
  705.0000     -0.0005
  706.0000     -0.0005
  707.0000     -0.0005
  708.0000     -0.0005
  709.0000     -0.0005
  710.0000     -0.0005
  711.0000     -0.0006
  712.0000     -0.0005
  713.0000     -0.0005
  714.0000     -0.0005
  715.0000     -0.0005
  716.0000     -0.0005
  717.0000     -0.0006
  718.0000     -0.0006
  719.0000     -0.0006
  720.0000     -0.0005
  721.0000     -0.0005
  722.0000     -0.0005
  723.0000     -0.0005
  724.0000     -0.0006
  725.0000     -0.0006
  726.0000     -0.0005
  727.0000     -0.0006
  728.0000     -0.0006
  729.0000     -0.0006
  730.0000     -0.0006
  731.0000     -0.0006
  732.0000     -0.0006
  733.0000     -0.0006
  734.0000     -0.0007
  735.0000     -0.0006
  736.0000     -0.0005
  737.0000     -0.0006
  738.0000     -0.0005
  739.0000     -0.0006
  740.0000     -0.0006
  741.0000     -0.0006
  742.0000     -0.0006
  743.0000     -0.0007
  744.0000     -0.0006
  745.0000     -0.0006
  746.0000     -0.0006
  747.0000     -0.0006
  748.0000     -0.0006
  749.0000     -0.0006
  750.0000     -0.0006
  751.0000     -0.0006
  752.0000     -0.0006
  753.0000     -0.0006
  754.0000     -0.0006
  755.0000     -0.0007
  756.0000     -0.0007
  757.0000     -0.0006
  758.0000     -0.0006
  759.0000     -0.0005
  760.0000     -0.0006
  761.0000     -0.0006
  762.0000     -0.0006
  763.0000     -0.0006
  764.0000     -0.0006
  765.0000     -0.0006
  766.0000     -0.0006
  767.0000     -0.0006
  768.0000     -0.0006
  769.0000     -0.0005
  770.0000     -0.0005
  771.0000     -0.0005
  772.0000     -0.0005
  773.0000     -0.0005
  774.0000     -0.0006
  775.0000     -0.0006
  776.0000     -0.0006
  777.0000     -0.0006
  778.0000     -0.0006
  779.0000     -0.0006
  780.0000     -0.0006
  781.0000     -0.0007
  782.0000     -0.0006
  783.0000     -0.0006
  784.0000     -0.0006
  785.0000     -0.0006
  786.0000     -0.0005
  787.0000     -0.0006
  788.0000     -0.0006
  789.0000     -0.0006
  790.0000     -0.0006
  791.0000     -0.0006
  792.0000     -0.0005
  793.0000     -0.0006
  794.0000     -0.0006
  795.0000     -0.0006
  796.0000     -0.0006
  797.0000     -0.0006
  798.0000     -0.0006
  799.0000     -0.0006
  800.0000     -0.0007
