Start Wavelength:    200.0000
End Wavelength:    800.0000
Read Mode:  ABS
Read Average:      0.1000
Nanometer Interval:      1.0000
Time:      0.0000

  200.0000     -0.0003
  201.0000      0.0003
  202.0000      0.0006
  203.0000      0.0003
  204.0000     -0.0005
  205.0000     -0.0001
  206.0000      0.0006
  207.0000     -0.0004
  208.0000     -0.0008
  209.0000     -0.0011
  210.0000     -0.0007
  211.0000     -0.0010
  212.0000     -0.0019
  213.0000     -0.0021
  214.0000     -0.0029
  215.0000     -0.0028
  216.0000     -0.0029
  217.0000     -0.0030
  218.0000     -0.0035
  219.0000     -0.0037
  220.0000     -0.0033
  221.0000     -0.0033
  222.0000     -0.0038
  223.0000     -0.0035
  224.0000     -0.0039
  225.0000     -0.0038
  226.0000     -0.0035
  227.0000     -0.0037
  228.0000     -0.0036
  229.0000     -0.0038
  230.0000     -0.0037
  231.0000     -0.0037
  232.0000     -0.0035
  233.0000     -0.0036
  234.0000     -0.0036
  235.0000     -0.0034
  236.0000     -0.0033
  237.0000     -0.0033
  238.0000     -0.0031
  239.0000     -0.0033
  240.0000     -0.0031
  241.0000     -0.0028
  242.0000     -0.0027
  243.0000     -0.0025
  244.0000     -0.0026
  245.0000     -0.0025
  246.0000     -0.0024
  247.0000     -0.0019
  248.0000     -0.0020
  249.0000     -0.0022
  250.0000     -0.0021
  251.0000     -0.0018
  252.0000     -0.0017
  253.0000     -0.0020
  254.0000     -0.0019
  255.0000     -0.0019
  256.0000     -0.0019
  257.0000     -0.0018
  258.0000     -0.0017
  259.0000     -0.0017
  260.0000     -0.0020
  261.0000     -0.0017
  262.0000     -0.0017
  263.0000     -0.0018
  264.0000     -0.0021
  265.0000     -0.0018
  266.0000     -0.0019
  267.0000     -0.0018
  268.0000     -0.0016
  269.0000     -0.0016
  270.0000     -0.0016
  271.0000     -0.0016
  272.0000     -0.0016
  273.0000     -0.0014
  274.0000     -0.0015
  275.0000     -0.0016
  276.0000     -0.0016
  277.0000     -0.0018
  278.0000     -0.0014
  279.0000     -0.0017
  280.0000     -0.0012
  281.0000     -0.0015
  282.0000     -0.0019
  283.0000     -0.0014
  284.0000     -0.0007
  285.0000     -0.0017
  286.0000     -0.0017
  287.0000     -0.0014
  288.0000     -0.0013
  289.0000     -0.0012
  290.0000     -0.0015
  291.0000     -0.0017
  292.0000     -0.0012
  293.0000     -0.0014
  294.0000     -0.0010
  295.0000     -0.0014
  296.0000     -0.0012
  297.0000     -0.0008
  298.0000     -0.0011
  299.0000     -0.0005
  300.0000     -0.0006
  301.0000     -0.0011
  302.0000     -0.0010
  303.0000     -0.0007
  304.0000     -0.0005
  305.0000     -0.0011
  306.0000     -0.0010
  307.0000     -0.0010
  308.0000     -0.0006
  309.0000     -0.0006
  310.0000     -0.0004
  311.0000     -0.0012
  312.0000     -0.0007
  313.0000     -0.0004
  314.0000     -0.0007
  315.0000     -0.0008
  316.0000     -0.0015
  317.0000     -0.0005
  318.0000     -0.0009
  319.0000     -0.0009
  320.0000     -0.0010
  321.0000     -0.0013
  322.0000      0.0003
  323.0000     -0.0004
  324.0000     -0.0000
  325.0000      0.0004
  326.0000      0.0003
  327.0000      0.0001
  328.0000      0.0004
  329.0000      0.0002
  330.0000      0.0003
  331.0000      0.0001
  332.0000      0.0003
  333.0000     -0.0000
  334.0000      0.0001
  335.0000      0.0005
  336.0000     -0.0000
  337.0000     -0.0001
  338.0000     -0.0002
  339.0000     -0.0003
  340.0000     -0.0000
  341.0000     -0.0002
  342.0000     -0.0002
  343.0000     -0.0004
  344.0000     -0.0000
  345.0000      0.0000
  346.0000     -0.0002
  347.0000     -0.0005
  348.0000     -0.0002
  349.0000     -0.0000
  350.0000     -0.0000
  351.0000     -0.0002
  352.0000     -0.0002
  353.0000     -0.0002
  354.0000     -0.0003
  355.0000     -0.0001
  356.0000     -0.0001
  357.0000      0.0010
  358.0000     -0.0006
  359.0000     -0.0011
  360.0000      0.0022
  361.0000      0.0009
  362.0000     -0.0000
  363.0000      0.0007
  364.0000      0.0002
  365.0000      0.0005
  366.0000      0.0013
  367.0000      0.0008
  368.0000     -0.0000
  369.0000      0.0013
  370.0000      0.0007
  371.0000      0.0010
  372.0000      0.0005
  373.0000     -0.0008
  374.0000      0.0006
  375.0000      0.0001
  376.0000     -0.0001
  377.0000     -0.0001
  378.0000     -0.0001
  379.0000      0.0002
  380.0000      0.0004
  381.0000      0.0001
  382.0000     -0.0005
  383.0000     -0.0008
  384.0000     -0.0000
  385.0000     -0.0000
  386.0000     -0.0001
  387.0000     -0.0003
  388.0000     -0.0007
  389.0000     -0.0001
  390.0000      0.0001
  391.0000      0.0002
  392.0000     -0.0000
  393.0000      0.0001
  394.0000      0.0001
  395.0000     -0.0000
  396.0000      0.0001
  397.0000      0.0003
  398.0000      0.0004
  399.0000      0.0002
  400.0000     -0.0006
  401.0000     -0.0002
  402.0000     -0.0004
  403.0000     -0.0002
  404.0000     -0.0002
  405.0000     -0.0000
  406.0000     -0.0005
  407.0000     -0.0003
  408.0000     -0.0002
  409.0000      0.0002
  410.0000     -0.0002
  411.0000     -0.0004
  412.0000     -0.0000
  413.0000     -0.0004
  414.0000     -0.0003
  415.0000     -0.0007
  416.0000     -0.0012
  417.0000     -0.0011
  418.0000     -0.0011
  419.0000     -0.0011
  420.0000     -0.0012
  421.0000     -0.0011
  422.0000     -0.0012
  423.0000     -0.0011
  424.0000     -0.0012
  425.0000     -0.0011
  426.0000     -0.0012
  427.0000     -0.0012
  428.0000     -0.0012
  429.0000     -0.0011
  430.0000     -0.0011
  431.0000     -0.0011
  432.0000     -0.0011
  433.0000     -0.0012
  434.0000     -0.0011
  435.0000     -0.0011
  436.0000     -0.0010
  437.0000     -0.0011
  438.0000     -0.0012
  439.0000     -0.0010
  440.0000     -0.0011
  441.0000     -0.0011
  442.0000     -0.0011
  443.0000     -0.0010
  444.0000     -0.0010
  445.0000     -0.0010
  446.0000     -0.0010
  447.0000     -0.0011
  448.0000     -0.0011
  449.0000     -0.0010
  450.0000     -0.0011
  451.0000     -0.0011
  452.0000     -0.0010
  453.0000     -0.0011
  454.0000     -0.0010
  455.0000     -0.0010
  456.0000     -0.0010
  457.0000     -0.0009
  458.0000     -0.0010
  459.0000     -0.0010
  460.0000     -0.0010
  461.0000     -0.0010
  462.0000     -0.0011
  463.0000     -0.0011
  464.0000     -0.0011
  465.0000     -0.0011
  466.0000     -0.0012
  467.0000     -0.0012
  468.0000     -0.0011
  469.0000     -0.0012
  470.0000     -0.0012
  471.0000     -0.0012
  472.0000     -0.0012
  473.0000     -0.0012
  474.0000     -0.0011
  475.0000     -0.0012
  476.0000     -0.0011
  477.0000     -0.0011
  478.0000     -0.0011
  479.0000     -0.0011
  480.0000     -0.0011
  481.0000     -0.0011
  482.0000     -0.0011
  483.0000     -0.0011
  484.0000     -0.0011
  485.0000     -0.0010
  486.0000     -0.0011
  487.0000     -0.0010
  488.0000     -0.0010
  489.0000     -0.0010
  490.0000     -0.0010
  491.0000     -0.0010
  492.0000     -0.0010
  493.0000     -0.0010
  494.0000     -0.0010
  495.0000     -0.0010
  496.0000     -0.0010
  497.0000     -0.0010
  498.0000     -0.0010
  499.0000     -0.0010
  500.0000     -0.0010
  501.0000     -0.0010
  502.0000     -0.0010
  503.0000     -0.0010
  504.0000     -0.0010
  505.0000     -0.0010
  506.0000     -0.0010
  507.0000     -0.0010
  508.0000     -0.0010
  509.0000     -0.0010
  510.0000     -0.0010
  511.0000     -0.0010
  512.0000     -0.0010
  513.0000     -0.0010
  514.0000     -0.0010
  515.0000     -0.0010
  516.0000     -0.0009
  517.0000     -0.0009
  518.0000     -0.0010
  519.0000     -0.0009
  520.0000     -0.0009
  521.0000     -0.0009
  522.0000     -0.0009
  523.0000     -0.0009
  524.0000     -0.0009
  525.0000     -0.0009
  526.0000     -0.0010
  527.0000     -0.0010
  528.0000     -0.0010
  529.0000     -0.0009
  530.0000     -0.0009
  531.0000     -0.0010
  532.0000     -0.0009
  533.0000     -0.0009
  534.0000     -0.0009
  535.0000     -0.0009
  536.0000     -0.0009
  537.0000     -0.0009
  538.0000     -0.0009
  539.0000     -0.0009
  540.0000     -0.0009
  541.0000     -0.0009
  542.0000     -0.0009
  543.0000     -0.0009
  544.0000     -0.0009
  545.0000     -0.0009
  546.0000     -0.0009
  547.0000     -0.0009
  548.0000     -0.0009
  549.0000     -0.0009
  550.0000     -0.0008
  551.0000     -0.0009
  552.0000     -0.0008
  553.0000     -0.0009
  554.0000     -0.0009
  555.0000     -0.0008
  556.0000     -0.0009
  557.0000     -0.0006
  558.0000     -0.0006
  559.0000     -0.0007
  560.0000     -0.0007
  561.0000     -0.0007
  562.0000     -0.0007
  563.0000     -0.0007
  564.0000     -0.0007
  565.0000     -0.0007
  566.0000     -0.0007
  567.0000     -0.0006
  568.0000     -0.0007
  569.0000     -0.0007
  570.0000     -0.0007
  571.0000     -0.0007
  572.0000     -0.0007
  573.0000     -0.0007
  574.0000     -0.0007
  575.0000     -0.0007
  576.0000     -0.0007
  577.0000     -0.0007
  578.0000     -0.0007
  579.0000     -0.0007
  580.0000     -0.0007
  581.0000     -0.0007
  582.0000     -0.0007
  583.0000     -0.0007
  584.0000     -0.0007
  585.0000     -0.0007
  586.0000     -0.0007
  587.0000     -0.0007
  588.0000     -0.0007
  589.0000     -0.0007
  590.0000     -0.0008
  591.0000     -0.0008
  592.0000     -0.0008
  593.0000     -0.0008
  594.0000     -0.0008
  595.0000     -0.0008
  596.0000     -0.0008
  597.0000     -0.0008
  598.0000     -0.0008
  599.0000     -0.0008
  600.0000     -0.0008
  601.0000     -0.0008
  602.0000     -0.0008
  603.0000     -0.0007
  604.0000     -0.0008
  605.0000     -0.0008
  606.0000     -0.0008
  607.0000     -0.0008
  608.0000     -0.0008
  609.0000     -0.0008
  610.0000     -0.0008
  611.0000     -0.0008
  612.0000     -0.0008
  613.0000     -0.0008
  614.0000     -0.0008
  615.0000     -0.0007
  616.0000     -0.0007
  617.0000     -0.0006
  618.0000     -0.0006
  619.0000     -0.0006
  620.0000     -0.0005
  621.0000     -0.0005
  622.0000     -0.0005
  623.0000     -0.0005
  624.0000     -0.0005
  625.0000     -0.0006
  626.0000     -0.0006
  627.0000     -0.0005
  628.0000     -0.0006
  629.0000     -0.0005
  630.0000     -0.0005
  631.0000     -0.0005
  632.0000     -0.0005
  633.0000     -0.0005
  634.0000     -0.0005
  635.0000     -0.0005
  636.0000     -0.0004
  637.0000     -0.0004
  638.0000     -0.0004
  639.0000     -0.0004
  640.0000     -0.0004
  641.0000     -0.0005
  642.0000     -0.0005
  643.0000     -0.0004
  644.0000     -0.0004
  645.0000     -0.0004
  646.0000     -0.0004
  647.0000     -0.0004
  648.0000     -0.0005
  649.0000     -0.0005
  650.0000     -0.0004
  651.0000     -0.0005
  652.0000     -0.0004
  653.0000     -0.0004
  654.0000     -0.0004
  655.0000     -0.0004
  656.0000     -0.0004
  657.0000     -0.0004
  658.0000     -0.0004
  659.0000     -0.0004
  660.0000     -0.0004
  661.0000     -0.0004
  662.0000     -0.0004
  663.0000     -0.0004
  664.0000     -0.0004
  665.0000     -0.0004
  666.0000     -0.0004
  667.0000     -0.0004
  668.0000     -0.0004
  669.0000     -0.0004
  670.0000     -0.0004
  671.0000     -0.0004
  672.0000     -0.0004
  673.0000     -0.0004
  674.0000     -0.0004
  675.0000     -0.0004
  676.0000     -0.0004
  677.0000     -0.0004
  678.0000     -0.0004
  679.0000     -0.0004
  680.0000     -0.0004
  681.0000     -0.0004
  682.0000     -0.0003
  683.0000     -0.0003
  684.0000     -0.0003
  685.0000     -0.0003
  686.0000     -0.0003
  687.0000     -0.0003
  688.0000     -0.0004
  689.0000     -0.0004
  690.0000     -0.0004
  691.0000     -0.0003
  692.0000     -0.0004
  693.0000     -0.0003
  694.0000     -0.0003
  695.0000     -0.0003
  696.0000     -0.0003
  697.0000     -0.0003
  698.0000     -0.0003
  699.0000     -0.0003
  700.0000     -0.0003
  701.0000     -0.0003
  702.0000     -0.0003
  703.0000     -0.0003
  704.0000     -0.0003
  705.0000     -0.0003
  706.0000     -0.0003
  707.0000     -0.0003
  708.0000     -0.0003
  709.0000     -0.0003
  710.0000     -0.0003
  711.0000     -0.0003
  712.0000     -0.0003
  713.0000     -0.0003
  714.0000     -0.0003
  715.0000     -0.0003
  716.0000     -0.0003
  717.0000     -0.0003
  718.0000     -0.0003
  719.0000     -0.0003
  720.0000     -0.0003
  721.0000     -0.0003
  722.0000     -0.0003
  723.0000     -0.0003
  724.0000     -0.0003
  725.0000     -0.0003
  726.0000     -0.0003
  727.0000     -0.0003
  728.0000     -0.0003
  729.0000     -0.0003
  730.0000     -0.0004
  731.0000     -0.0003
  732.0000     -0.0004
  733.0000     -0.0004
  734.0000     -0.0003
  735.0000     -0.0004
  736.0000     -0.0003
  737.0000     -0.0004
  738.0000     -0.0003
  739.0000     -0.0003
  740.0000     -0.0003
  741.0000     -0.0003
  742.0000     -0.0003
  743.0000     -0.0003
  744.0000     -0.0004
  745.0000     -0.0004
  746.0000     -0.0004
  747.0000     -0.0004
  748.0000     -0.0004
  749.0000     -0.0004
  750.0000     -0.0004
  751.0000     -0.0004
  752.0000     -0.0003
  753.0000     -0.0003
  754.0000     -0.0003
  755.0000     -0.0003
  756.0000     -0.0002
  757.0000     -0.0002
  758.0000     -0.0003
  759.0000     -0.0003
  760.0000     -0.0003
  761.0000     -0.0003
  762.0000     -0.0003
  763.0000     -0.0003
  764.0000     -0.0002
  765.0000     -0.0002
  766.0000     -0.0003
  767.0000     -0.0003
  768.0000     -0.0003
  769.0000     -0.0003
  770.0000     -0.0002
  771.0000     -0.0002
  772.0000     -0.0002
  773.0000     -0.0002
  774.0000     -0.0002
  775.0000     -0.0002
  776.0000     -0.0002
  777.0000     -0.0002
  778.0000     -0.0002
  779.0000     -0.0002
  780.0000     -0.0002
  781.0000     -0.0002
  782.0000     -0.0002
  783.0000     -0.0002
  784.0000     -0.0002
  785.0000     -0.0002
  786.0000     -0.0002
  787.0000     -0.0002
  788.0000     -0.0002
  789.0000     -0.0002
  790.0000     -0.0002
  791.0000     -0.0002
  792.0000     -0.0002
  793.0000     -0.0002
  794.0000     -0.0001
  795.0000     -0.0002
  796.0000     -0.0003
  797.0000     -0.0002
  798.0000     -0.0002
  799.0000     -0.0002
  800.0000     -0.0003
