Start Wavelength:    200.0000
End Wavelength:    800.0000
Read Mode:  ABS
Read Average:      0.1000
Nanometer Interval:      1.0000
Time:      0.0000

  200.0000      1.2182
  201.0000      1.1643
  202.0000      1.1356
  203.0000      1.1088
  204.0000      1.0751
  205.0000      1.0479
  206.0000      1.0236
  207.0000      0.9955
  208.0000      0.9643
  209.0000      0.9307
  210.0000      0.8972
  211.0000      0.8651
  212.0000      0.8299
  213.0000      0.7892
  214.0000      0.7518
  215.0000      0.7147
  216.0000      0.6780
  217.0000      0.6370
  218.0000      0.6015
  219.0000      0.5681
  220.0000      0.5340
  221.0000      0.5005
  222.0000      0.4717
  223.0000      0.4438
  224.0000      0.4194
  225.0000      0.3941
  226.0000      0.3726
  227.0000      0.3536
  228.0000      0.3359
  229.0000      0.3183
  230.0000      0.3049
  231.0000      0.2924
  232.0000      0.2814
  233.0000      0.2705
  234.0000      0.2617
  235.0000      0.2540
  236.0000      0.2472
  237.0000      0.2407
  238.0000      0.2354
  239.0000      0.2306
  240.0000      0.2263
  241.0000      0.2224
  242.0000      0.2196
  243.0000      0.2164
  244.0000      0.2136
  245.0000      0.2111
  246.0000      0.2092
  247.0000      0.2073
  248.0000      0.2054
  249.0000      0.2034
  250.0000      0.2016
  251.0000      0.2003
  252.0000      0.1992
  253.0000      0.1974
  254.0000      0.1960
  255.0000      0.1947
  256.0000      0.1934
  257.0000      0.1926
  258.0000      0.1912
  259.0000      0.1901
  260.0000      0.1888
  261.0000      0.1874
  262.0000      0.1862
  263.0000      0.1850
  264.0000      0.1832
  265.0000      0.1816
  266.0000      0.1803
  267.0000      0.1789
  268.0000      0.1769
  269.0000      0.1759
  270.0000      0.1744
  271.0000      0.1727
  272.0000      0.1713
  273.0000      0.1699
  274.0000      0.1682
  275.0000      0.1664
  276.0000      0.1650
  277.0000      0.1634
  278.0000      0.1620
  279.0000      0.1599
  280.0000      0.1587
  281.0000      0.1569
  282.0000      0.1547
  283.0000      0.1532
  284.0000      0.1520
  285.0000      0.1500
  286.0000      0.1477
  287.0000      0.1463
  288.0000      0.1440
  289.0000      0.1427
  290.0000      0.1402
  291.0000      0.1384
  292.0000      0.1370
  293.0000      0.1350
  294.0000      0.1336
  295.0000      0.1317
  296.0000      0.1304
  297.0000      0.1291
  298.0000      0.1273
  299.0000      0.1265
  300.0000      0.1247
  301.0000      0.1229
  302.0000      0.1218
  303.0000      0.1205
  304.0000      0.1195
  305.0000      0.1177
  306.0000      0.1167
  307.0000      0.1156
  308.0000      0.1144
  309.0000      0.1135
  310.0000      0.1122
  311.0000      0.1107
  312.0000      0.1098
  313.0000      0.1089
  314.0000      0.1078
  315.0000      0.1065
  316.0000      0.1054
  317.0000      0.1049
  318.0000      0.1041
  319.0000      0.1029
  320.0000      0.1021
  321.0000      0.1011
  322.0000      0.1022
  323.0000      0.1011
  324.0000      0.1000
  325.0000      0.0993
  326.0000      0.0981
  327.0000      0.0976
  328.0000      0.0974
  329.0000      0.0964
  330.0000      0.0958
  331.0000      0.0949
  332.0000      0.0946
  333.0000      0.0935
  334.0000      0.0930
  335.0000      0.0922
  336.0000      0.0910
  337.0000      0.0904
  338.0000      0.0895
  339.0000      0.0891
  340.0000      0.0885
  341.0000      0.0878
  342.0000      0.0872
  343.0000      0.0860
  344.0000      0.0858
  345.0000      0.0853
  346.0000      0.0842
  347.0000      0.0832
  348.0000      0.0825
  349.0000      0.0821
  350.0000      0.0814
  351.0000      0.0807
  352.0000      0.0799
  353.0000      0.0792
  354.0000      0.0789
  355.0000      0.0785
  356.0000      0.0779
  357.0000      0.0775
  358.0000      0.0763
  359.0000      0.0758
  360.0000      0.0774
  361.0000      0.0761
  362.0000      0.0753
  363.0000      0.0745
  364.0000      0.0750
  365.0000      0.0735
  366.0000      0.0737
  367.0000      0.0731
  368.0000      0.0723
  369.0000      0.0731
  370.0000      0.0723
  371.0000      0.0714
  372.0000      0.0705
  373.0000      0.0689
  374.0000      0.0698
  375.0000      0.0691
  376.0000      0.0686
  377.0000      0.0676
  378.0000      0.0674
  379.0000      0.0671
  380.0000      0.0674
  381.0000      0.0669
  382.0000      0.0658
  383.0000      0.0651
  384.0000      0.0659
  385.0000      0.0659
  386.0000      0.0649
  387.0000      0.0643
  388.0000      0.0637
  389.0000      0.0641
  390.0000      0.0644
  391.0000      0.0639
  392.0000      0.0631
  393.0000      0.0629
  394.0000      0.0627
  395.0000      0.0623
  396.0000      0.0623
  397.0000      0.0622
  398.0000      0.0615
  399.0000      0.0609
  400.0000      0.0608
  401.0000      0.0605
  402.0000      0.0601
  403.0000      0.0597
  404.0000      0.0597
  405.0000      0.0595
  406.0000      0.0589
  407.0000      0.0586
  408.0000      0.0582
  409.0000      0.0582
  410.0000      0.0578
  411.0000      0.0574
  412.0000      0.0570
  413.0000      0.0568
  414.0000      0.0569
  415.0000      0.0567
  416.0000      0.0569
  417.0000      0.0566
  418.0000      0.0562
  419.0000      0.0559
  420.0000      0.0557
  421.0000      0.0553
  422.0000      0.0551
  423.0000      0.0548
  424.0000      0.0545
  425.0000      0.0542
  426.0000      0.0538
  427.0000      0.0535
  428.0000      0.0532
  429.0000      0.0530
  430.0000      0.0527
  431.0000      0.0524
  432.0000      0.0522
  433.0000      0.0519
  434.0000      0.0518
  435.0000      0.0515
  436.0000      0.0513
  437.0000      0.0510
  438.0000      0.0506
  439.0000      0.0504
  440.0000      0.0502
  441.0000      0.0499
  442.0000      0.0497
  443.0000      0.0495
  444.0000      0.0493
  445.0000      0.0491
  446.0000      0.0490
  447.0000      0.0488
  448.0000      0.0486
  449.0000      0.0485
  450.0000      0.0483
  451.0000      0.0481
  452.0000      0.0479
  453.0000      0.0476
  454.0000      0.0475
  455.0000      0.0473
  456.0000      0.0471
  457.0000      0.0470
  458.0000      0.0469
  459.0000      0.0467
  460.0000      0.0466
  461.0000      0.0465
  462.0000      0.0463
  463.0000      0.0462
  464.0000      0.0462
  465.0000      0.0462
  466.0000      0.0461
  467.0000      0.0461
  468.0000      0.0461
  469.0000      0.0461
  470.0000      0.0461
  471.0000      0.0462
  472.0000      0.0461
  473.0000      0.0461
  474.0000      0.0460
  475.0000      0.0459
  476.0000      0.0459
  477.0000      0.0457
  478.0000      0.0456
  479.0000      0.0455
  480.0000      0.0453
  481.0000      0.0452
  482.0000      0.0450
  483.0000      0.0449
  484.0000      0.0448
  485.0000      0.0446
  486.0000      0.0445
  487.0000      0.0443
  488.0000      0.0442
  489.0000      0.0441
  490.0000      0.0439
  491.0000      0.0438
  492.0000      0.0437
  493.0000      0.0436
  494.0000      0.0435
  495.0000      0.0433
  496.0000      0.0432
  497.0000      0.0431
  498.0000      0.0430
  499.0000      0.0429
  500.0000      0.0429
  501.0000      0.0429
  502.0000      0.0430
  503.0000      0.0429
  504.0000      0.0428
  505.0000      0.0427
  506.0000      0.0426
  507.0000      0.0424
  508.0000      0.0423
  509.0000      0.0422
  510.0000      0.0423
  511.0000      0.0422
  512.0000      0.0423
  513.0000      0.0422
  514.0000      0.0422
  515.0000      0.0421
  516.0000      0.0422
  517.0000      0.0422
  518.0000      0.0421
  519.0000      0.0422
  520.0000      0.0421
  521.0000      0.0420
  522.0000      0.0420
  523.0000      0.0419
  524.0000      0.0417
  525.0000      0.0416
  526.0000      0.0414
  527.0000      0.0412
  528.0000      0.0411
  529.0000      0.0410
  530.0000      0.0409
  531.0000      0.0408
  532.0000      0.0407
  533.0000      0.0406
  534.0000      0.0403
  535.0000      0.0400
  536.0000      0.0398
  537.0000      0.0397
  538.0000      0.0396
  539.0000      0.0395
  540.0000      0.0394
  541.0000      0.0394
  542.0000      0.0393
  543.0000      0.0392
  544.0000      0.0391
  545.0000      0.0388
  546.0000      0.0386
  547.0000      0.0385
  548.0000      0.0383
  549.0000      0.0382
  550.0000      0.0379
  551.0000      0.0377
  552.0000      0.0377
  553.0000      0.0375
  554.0000      0.0374
  555.0000      0.0373
  556.0000      0.0372
  557.0000      0.0376
  558.0000      0.0375
  559.0000      0.0373
  560.0000      0.0372
  561.0000      0.0371
  562.0000      0.0370
  563.0000      0.0368
  564.0000      0.0367
  565.0000      0.0366
  566.0000      0.0364
  567.0000      0.0363
  568.0000      0.0362
  569.0000      0.0360
  570.0000      0.0359
  571.0000      0.0359
  572.0000      0.0360
  573.0000      0.0361
  574.0000      0.0362
  575.0000      0.0363
  576.0000      0.0364
  577.0000      0.0364
  578.0000      0.0364
  579.0000      0.0363
  580.0000      0.0361
  581.0000      0.0360
  582.0000      0.0359
  583.0000      0.0358
  584.0000      0.0357
  585.0000      0.0356
  586.0000      0.0355
  587.0000      0.0354
  588.0000      0.0353
  589.0000      0.0353
  590.0000      0.0352
  591.0000      0.0352
  592.0000      0.0351
  593.0000      0.0350
  594.0000      0.0349
  595.0000      0.0348
  596.0000      0.0347
  597.0000      0.0346
  598.0000      0.0345
  599.0000      0.0344
  600.0000      0.0343
  601.0000      0.0343
  602.0000      0.0342
  603.0000      0.0342
  604.0000      0.0342
  605.0000      0.0341
  606.0000      0.0339
  607.0000      0.0339
  608.0000      0.0339
  609.0000      0.0339
  610.0000      0.0339
  611.0000      0.0339
  612.0000      0.0340
  613.0000      0.0340
  614.0000      0.0340
  615.0000      0.0339
  616.0000      0.0339
  617.0000      0.0340
  618.0000      0.0340
  619.0000      0.0341
  620.0000      0.0342
  621.0000      0.0341
  622.0000      0.0341
  623.0000      0.0341
  624.0000      0.0341
  625.0000      0.0341
  626.0000      0.0341
  627.0000      0.0342
  628.0000      0.0342
  629.0000      0.0343
  630.0000      0.0343
  631.0000      0.0343
  632.0000      0.0343
  633.0000      0.0344
  634.0000      0.0344
  635.0000      0.0343
  636.0000      0.0342
  637.0000      0.0341
  638.0000      0.0341
  639.0000      0.0340
  640.0000      0.0340
  641.0000      0.0339
  642.0000      0.0338
  643.0000      0.0339
  644.0000      0.0336
  645.0000      0.0335
  646.0000      0.0332
  647.0000      0.0330
  648.0000      0.0328
  649.0000      0.0326
  650.0000      0.0326
  651.0000      0.0324
  652.0000      0.0322
  653.0000      0.0320
  654.0000      0.0320
  655.0000      0.0319
  656.0000      0.0318
  657.0000      0.0318
  658.0000      0.0317
  659.0000      0.0317
  660.0000      0.0317
  661.0000      0.0317
  662.0000      0.0317
  663.0000      0.0317
  664.0000      0.0318
  665.0000      0.0317
  666.0000      0.0316
  667.0000      0.0315
  668.0000      0.0315
  669.0000      0.0315
  670.0000      0.0314
  671.0000      0.0314
  672.0000      0.0313
  673.0000      0.0311
  674.0000      0.0310
  675.0000      0.0309
  676.0000      0.0309
  677.0000      0.0308
  678.0000      0.0309
  679.0000      0.0309
  680.0000      0.0309
  681.0000      0.0309
  682.0000      0.0309
  683.0000      0.0310
  684.0000      0.0310
  685.0000      0.0311
  686.0000      0.0312
  687.0000      0.0312
  688.0000      0.0312
  689.0000      0.0313
  690.0000      0.0313
  691.0000      0.0314
  692.0000      0.0313
  693.0000      0.0313
  694.0000      0.0312
  695.0000      0.0312
  696.0000      0.0310
  697.0000      0.0309
  698.0000      0.0307
  699.0000      0.0306
  700.0000      0.0307
  701.0000      0.0305
  702.0000      0.0304
  703.0000      0.0303
  704.0000      0.0302
  705.0000      0.0301
  706.0000      0.0301
  707.0000      0.0300
  708.0000      0.0300
  709.0000      0.0299
  710.0000      0.0298
  711.0000      0.0298
  712.0000      0.0298
  713.0000      0.0297
  714.0000      0.0297
  715.0000      0.0297
  716.0000      0.0297
  717.0000      0.0296
  718.0000      0.0296
  719.0000      0.0295
  720.0000      0.0295
  721.0000      0.0295
  722.0000      0.0294
  723.0000      0.0293
  724.0000      0.0293
  725.0000      0.0292
  726.0000      0.0290
  727.0000      0.0289
  728.0000      0.0287
  729.0000      0.0286
  730.0000      0.0284
  731.0000      0.0283
  732.0000      0.0281
  733.0000      0.0279
  734.0000      0.0278
  735.0000      0.0277
  736.0000      0.0276
  737.0000      0.0276
  738.0000      0.0276
  739.0000      0.0276
  740.0000      0.0277
  741.0000      0.0278
  742.0000      0.0278
  743.0000      0.0279
  744.0000      0.0279
  745.0000      0.0279
  746.0000      0.0280
  747.0000      0.0280
  748.0000      0.0280
  749.0000      0.0280
  750.0000      0.0281
  751.0000      0.0282
  752.0000      0.0283
  753.0000      0.0284
  754.0000      0.0284
  755.0000      0.0284
  756.0000      0.0284
  757.0000      0.0284
  758.0000      0.0284
  759.0000      0.0283
  760.0000      0.0284
  761.0000      0.0283
  762.0000      0.0282
  763.0000      0.0282
  764.0000      0.0282
  765.0000      0.0281
  766.0000      0.0280
  767.0000      0.0279
  768.0000      0.0278
  769.0000      0.0277
  770.0000      0.0276
  771.0000      0.0275
  772.0000      0.0274
  773.0000      0.0273
  774.0000      0.0272
  775.0000      0.0271
  776.0000      0.0271
  777.0000      0.0270
  778.0000      0.0269
  779.0000      0.0269
  780.0000      0.0268
  781.0000      0.0268
  782.0000      0.0268
  783.0000      0.0268
  784.0000      0.0268
  785.0000      0.0268
  786.0000      0.0268
  787.0000      0.0269
  788.0000      0.0269
  789.0000      0.0270
  790.0000      0.0270
  791.0000      0.0271
  792.0000      0.0271
  793.0000      0.0271
  794.0000      0.0272
  795.0000      0.0272
  796.0000      0.0271
  797.0000      0.0271
  798.0000      0.0270
  799.0000      0.0269
  800.0000      0.0267
