Start Wavelength:    200.0000
End Wavelength:    800.0000
Read Mode:  ABS
Read Average:      0.1000
Nanometer Interval:      1.0000
Time:      0.0000

  200.0000      2.1044
  201.0000      2.0985
  202.0000      2.0772
  203.0000      2.0603
  204.0000      1.9987
  205.0000      1.9951
  206.0000      1.9349
  207.0000      1.8939
  208.0000      1.8550
  209.0000      1.7971
  210.0000      1.7128
  211.0000      1.6528
  212.0000      1.5699
  213.0000      1.4867
  214.0000      1.3997
  215.0000      1.3147
  216.0000      1.2302
  217.0000      1.1402
  218.0000      1.0528
  219.0000      0.9726
  220.0000      0.8949
  221.0000      0.8174
  222.0000      0.7473
  223.0000      0.6829
  224.0000      0.6234
  225.0000      0.5659
  226.0000      0.5171
  227.0000      0.4736
  228.0000      0.4353
  229.0000      0.3971
  230.0000      0.3674
  231.0000      0.3415
  232.0000      0.3180
  233.0000      0.2963
  234.0000      0.2796
  235.0000      0.2649
  236.0000      0.2521
  237.0000      0.2402
  238.0000      0.2309
  239.0000      0.2225
  240.0000      0.2156
  241.0000      0.2094
  242.0000      0.2045
  243.0000      0.1998
  244.0000      0.1960
  245.0000      0.1919
  246.0000      0.1887
  247.0000      0.1867
  248.0000      0.1840
  249.0000      0.1813
  250.0000      0.1795
  251.0000      0.1776
  252.0000      0.1762
  253.0000      0.1744
  254.0000      0.1726
  255.0000      0.1714
  256.0000      0.1696
  257.0000      0.1685
  258.0000      0.1673
  259.0000      0.1660
  260.0000      0.1645
  261.0000      0.1634
  262.0000      0.1623
  263.0000      0.1610
  264.0000      0.1589
  265.0000      0.1580
  266.0000      0.1563
  267.0000      0.1549
  268.0000      0.1538
  269.0000      0.1520
  270.0000      0.1504
  271.0000      0.1491
  272.0000      0.1477
  273.0000      0.1469
  274.0000      0.1454
  275.0000      0.1437
  276.0000      0.1425
  277.0000      0.1406
  278.0000      0.1396
  279.0000      0.1379
  280.0000      0.1368
  281.0000      0.1349
  282.0000      0.1330
  283.0000      0.1317
  284.0000      0.1303
  285.0000      0.1280
  286.0000      0.1272
  287.0000      0.1252
  288.0000      0.1233
  289.0000      0.1220
  290.0000      0.1206
  291.0000      0.1188
  292.0000      0.1173
  293.0000      0.1162
  294.0000      0.1149
  295.0000      0.1129
  296.0000      0.1119
  297.0000      0.1105
  298.0000      0.1093
  299.0000      0.1083
  300.0000      0.1064
  301.0000      0.1050
  302.0000      0.1035
  303.0000      0.1029
  304.0000      0.1009
  305.0000      0.0998
  306.0000      0.0990
  307.0000      0.0977
  308.0000      0.0963
  309.0000      0.0957
  310.0000      0.0940
  311.0000      0.0927
  312.0000      0.0921
  313.0000      0.0909
  314.0000      0.0897
  315.0000      0.0889
  316.0000      0.0870
  317.0000      0.0865
  318.0000      0.0860
  319.0000      0.0848
  320.0000      0.0838
  321.0000      0.0831
  322.0000      0.0820
  323.0000      0.0807
  324.0000      0.0802
  325.0000      0.0798
  326.0000      0.0784
  327.0000      0.0781
  328.0000      0.0774
  329.0000      0.0767
  330.0000      0.0766
  331.0000      0.0756
  332.0000      0.0753
  333.0000      0.0747
  334.0000      0.0745
  335.0000      0.0740
  336.0000      0.0732
  337.0000      0.0727
  338.0000      0.0724
  339.0000      0.0716
  340.0000      0.0717
  341.0000      0.0711
  342.0000      0.0706
  343.0000      0.0702
  344.0000      0.0699
  345.0000      0.0693
  346.0000      0.0688
  347.0000      0.0680
  348.0000      0.0676
  349.0000      0.0677
  350.0000      0.0671
  351.0000      0.0665
  352.0000      0.0657
  353.0000      0.0654
  354.0000      0.0651
  355.0000      0.0648
  356.0000      0.0645
  357.0000      0.0622
  358.0000      0.0611
  359.0000      0.0606
  360.0000      0.0625
  361.0000      0.0618
  362.0000      0.0596
  363.0000      0.0588
  364.0000      0.0587
  365.0000      0.0592
  366.0000      0.0581
  367.0000      0.0578
  368.0000      0.0557
  369.0000      0.0562
  370.0000      0.0549
  371.0000      0.0556
  372.0000      0.0549
  373.0000      0.0535
  374.0000      0.0539
  375.0000      0.0532
  376.0000      0.0531
  377.0000      0.0519
  378.0000      0.0513
  379.0000      0.0518
  380.0000      0.0515
  381.0000      0.0511
  382.0000      0.0499
  383.0000      0.0492
  384.0000      0.0498
  385.0000      0.0494
  386.0000      0.0486
  387.0000      0.0486
  388.0000      0.0480
  389.0000      0.0478
  390.0000      0.0482
  391.0000      0.0479
  392.0000      0.0474
  393.0000      0.0468
  394.0000      0.0467
  395.0000      0.0466
  396.0000      0.0463
  397.0000      0.0461
  398.0000      0.0458
  399.0000      0.0450
  400.0000      0.0448
  401.0000      0.0444
  402.0000      0.0441
  403.0000      0.0441
  404.0000      0.0436
  405.0000      0.0436
  406.0000      0.0427
  407.0000      0.0427
  408.0000      0.0428
  409.0000      0.0426
  410.0000      0.0420
  411.0000      0.0415
  412.0000      0.0414
  413.0000      0.0411
  414.0000      0.0409
  415.0000      0.0408
  416.0000      0.0383
  417.0000      0.0380
  418.0000      0.0379
  419.0000      0.0375
  420.0000      0.0375
  421.0000      0.0371
  422.0000      0.0370
  423.0000      0.0369
  424.0000      0.0367
  425.0000      0.0366
  426.0000      0.0363
  427.0000      0.0362
  428.0000      0.0361
  429.0000      0.0361
  430.0000      0.0359
  431.0000      0.0359
  432.0000      0.0359
  433.0000      0.0357
  434.0000      0.0358
  435.0000      0.0357
  436.0000      0.0356
  437.0000      0.0354
  438.0000      0.0353
  439.0000      0.0353
  440.0000      0.0352
  441.0000      0.0350
  442.0000      0.0349
  443.0000      0.0348
  444.0000      0.0348
  445.0000      0.0346
  446.0000      0.0344
  447.0000      0.0343
  448.0000      0.0342
  449.0000      0.0341
  450.0000      0.0338
  451.0000      0.0337
  452.0000      0.0335
  453.0000      0.0334
  454.0000      0.0333
  455.0000      0.0331
  456.0000      0.0330
  457.0000      0.0330
  458.0000      0.0329
  459.0000      0.0329
  460.0000      0.0329
  461.0000      0.0330
  462.0000      0.0330
  463.0000      0.0330
  464.0000      0.0331
  465.0000      0.0332
  466.0000      0.0333
  467.0000      0.0333
  468.0000      0.0333
  469.0000      0.0333
  470.0000      0.0333
  471.0000      0.0333
  472.0000      0.0332
  473.0000      0.0331
  474.0000      0.0331
  475.0000      0.0331
  476.0000      0.0331
  477.0000      0.0331
  478.0000      0.0331
  479.0000      0.0331
  480.0000      0.0332
  481.0000      0.0332
  482.0000      0.0332
  483.0000      0.0332
  484.0000      0.0333
  485.0000      0.0334
  486.0000      0.0335
  487.0000      0.0336
  488.0000      0.0336
  489.0000      0.0337
  490.0000      0.0338
  491.0000      0.0338
  492.0000      0.0338
  493.0000      0.0339
  494.0000      0.0339
  495.0000      0.0338
  496.0000      0.0338
  497.0000      0.0337
  498.0000      0.0337
  499.0000      0.0336
  500.0000      0.0336
  501.0000      0.0336
  502.0000      0.0335
  503.0000      0.0334
  504.0000      0.0334
  505.0000      0.0333
  506.0000      0.0334
  507.0000      0.0334
  508.0000      0.0334
  509.0000      0.0334
  510.0000      0.0335
  511.0000      0.0336
  512.0000      0.0336
  513.0000      0.0336
  514.0000      0.0337
  515.0000      0.0337
  516.0000      0.0337
  517.0000      0.0337
  518.0000      0.0337
  519.0000      0.0337
  520.0000      0.0337
  521.0000      0.0337
  522.0000      0.0337
  523.0000      0.0337
  524.0000      0.0337
  525.0000      0.0336
  526.0000      0.0335
  527.0000      0.0335
  528.0000      0.0334
  529.0000      0.0333
  530.0000      0.0331
  531.0000      0.0328
  532.0000      0.0325
  533.0000      0.0322
  534.0000      0.0317
  535.0000      0.0312
  536.0000      0.0307
  537.0000      0.0301
  538.0000      0.0296
  539.0000      0.0290
  540.0000      0.0285
  541.0000      0.0280
  542.0000      0.0275
  543.0000      0.0271
  544.0000      0.0267
  545.0000      0.0264
  546.0000      0.0260
  547.0000      0.0258
  548.0000      0.0255
  549.0000      0.0254
  550.0000      0.0253
  551.0000      0.0252
  552.0000      0.0251
  553.0000      0.0249
  554.0000      0.0248
  555.0000      0.0247
  556.0000      0.0246
  557.0000      0.0255
  558.0000      0.0254
  559.0000      0.0254
  560.0000      0.0254
  561.0000      0.0254
  562.0000      0.0254
  563.0000      0.0253
  564.0000      0.0253
  565.0000      0.0252
  566.0000      0.0252
  567.0000      0.0251
  568.0000      0.0251
  569.0000      0.0251
  570.0000      0.0251
  571.0000      0.0251
  572.0000      0.0250
  573.0000      0.0249
  574.0000      0.0247
  575.0000      0.0246
  576.0000      0.0245
  577.0000      0.0245
  578.0000      0.0244
  579.0000      0.0242
  580.0000      0.0241
  581.0000      0.0240
  582.0000      0.0238
  583.0000      0.0237
  584.0000      0.0237
  585.0000      0.0237
  586.0000      0.0237
  587.0000      0.0236
  588.0000      0.0236
  589.0000      0.0235
  590.0000      0.0235
  591.0000      0.0236
  592.0000      0.0236
  593.0000      0.0235
  594.0000      0.0234
  595.0000      0.0234
  596.0000      0.0234
  597.0000      0.0233
  598.0000      0.0232
  599.0000      0.0232
  600.0000      0.0232
  601.0000      0.0232
  602.0000      0.0233
  603.0000      0.0232
  604.0000      0.0231
  605.0000      0.0230
  606.0000      0.0229
  607.0000      0.0228
  608.0000      0.0227
  609.0000      0.0226
  610.0000      0.0225
  611.0000      0.0224
  612.0000      0.0224
  613.0000      0.0223
  614.0000      0.0223
  615.0000      0.0221
  616.0000      0.0221
  617.0000      0.0222
  618.0000      0.0222
  619.0000      0.0221
  620.0000      0.0221
  621.0000      0.0220
  622.0000      0.0219
  623.0000      0.0217
  624.0000      0.0216
  625.0000      0.0214
  626.0000      0.0213
  627.0000      0.0212
  628.0000      0.0211
  629.0000      0.0210
  630.0000      0.0210
  631.0000      0.0210
  632.0000      0.0209
  633.0000      0.0209
  634.0000      0.0208
  635.0000      0.0208
  636.0000      0.0207
  637.0000      0.0207
  638.0000      0.0206
  639.0000      0.0205
  640.0000      0.0205
  641.0000      0.0205
  642.0000      0.0205
  643.0000      0.0204
  644.0000      0.0204
  645.0000      0.0204
  646.0000      0.0203
  647.0000      0.0203
  648.0000      0.0202
  649.0000      0.0202
  650.0000      0.0202
  651.0000      0.0202
  652.0000      0.0202
  653.0000      0.0202
  654.0000      0.0202
  655.0000      0.0202
  656.0000      0.0202
  657.0000      0.0203
  658.0000      0.0203
  659.0000      0.0203
  660.0000      0.0204
  661.0000      0.0205
  662.0000      0.0205
  663.0000      0.0205
  664.0000      0.0206
  665.0000      0.0206
  666.0000      0.0206
  667.0000      0.0206
  668.0000      0.0205
  669.0000      0.0205
  670.0000      0.0204
  671.0000      0.0203
  672.0000      0.0203
  673.0000      0.0203
  674.0000      0.0203
  675.0000      0.0203
  676.0000      0.0203
  677.0000      0.0204
  678.0000      0.0203
  679.0000      0.0204
  680.0000      0.0204
  681.0000      0.0204
  682.0000      0.0205
  683.0000      0.0206
  684.0000      0.0206
  685.0000      0.0206
  686.0000      0.0205
  687.0000      0.0205
  688.0000      0.0205
  689.0000      0.0205
  690.0000      0.0205
  691.0000      0.0205
  692.0000      0.0205
  693.0000      0.0205
  694.0000      0.0205
  695.0000      0.0205
  696.0000      0.0205
  697.0000      0.0205
  698.0000      0.0205
  699.0000      0.0205
  700.0000      0.0205
  701.0000      0.0204
  702.0000      0.0204
  703.0000      0.0204
  704.0000      0.0204
  705.0000      0.0203
  706.0000      0.0204
  707.0000      0.0204
  708.0000      0.0203
  709.0000      0.0203
  710.0000      0.0203
  711.0000      0.0202
  712.0000      0.0200
  713.0000      0.0198
  714.0000      0.0197
  715.0000      0.0196
  716.0000      0.0196
  717.0000      0.0194
  718.0000      0.0194
  719.0000      0.0194
  720.0000      0.0193
  721.0000      0.0192
  722.0000      0.0189
  723.0000      0.0188
  724.0000      0.0188
  725.0000      0.0188
  726.0000      0.0188
  727.0000      0.0188
  728.0000      0.0188
  729.0000      0.0187
  730.0000      0.0187
  731.0000      0.0187
  732.0000      0.0186
  733.0000      0.0185
  734.0000      0.0184
  735.0000      0.0184
  736.0000      0.0184
  737.0000      0.0182
  738.0000      0.0182
  739.0000      0.0181
  740.0000      0.0180
  741.0000      0.0178
  742.0000      0.0179
  743.0000      0.0179
  744.0000      0.0179
  745.0000      0.0179
  746.0000      0.0178
  747.0000      0.0178
  748.0000      0.0177
  749.0000      0.0176
  750.0000      0.0176
  751.0000      0.0175
  752.0000      0.0176
  753.0000      0.0176
  754.0000      0.0176
  755.0000      0.0175
  756.0000      0.0175
  757.0000      0.0175
  758.0000      0.0175
  759.0000      0.0174
  760.0000      0.0174
  761.0000      0.0174
  762.0000      0.0174
  763.0000      0.0174
  764.0000      0.0174
  765.0000      0.0174
  766.0000      0.0174
  767.0000      0.0174
  768.0000      0.0174
  769.0000      0.0174
  770.0000      0.0174
  771.0000      0.0175
  772.0000      0.0174
  773.0000      0.0175
  774.0000      0.0175
  775.0000      0.0175
  776.0000      0.0175
  777.0000      0.0175
  778.0000      0.0175
  779.0000      0.0176
  780.0000      0.0176
  781.0000      0.0177
  782.0000      0.0177
  783.0000      0.0177
  784.0000      0.0177
  785.0000      0.0177
  786.0000      0.0178
  787.0000      0.0178
  788.0000      0.0179
  789.0000      0.0179
  790.0000      0.0178
  791.0000      0.0179
  792.0000      0.0179
  793.0000      0.0178
  794.0000      0.0178
  795.0000      0.0177
  796.0000      0.0176
  797.0000      0.0176
  798.0000      0.0176
  799.0000      0.0174
  800.0000      0.0173
