Start Wavelength:    200.0000
End Wavelength:    800.0000
Read Mode:  ABS
Read Average:      0.1000
Nanometer Interval:      1.0000
Time:      0.0000

  200.0000      1.2408
  201.0000      1.1776
  202.0000      1.1469
  203.0000      1.1172
  204.0000      1.0799
  205.0000      1.0520
  206.0000      1.0300
  207.0000      1.0036
  208.0000      0.9742
  209.0000      0.9418
  210.0000      0.9047
  211.0000      0.8684
  212.0000      0.8342
  213.0000      0.7947
  214.0000      0.7561
  215.0000      0.7193
  216.0000      0.6803
  217.0000      0.6401
  218.0000      0.6023
  219.0000      0.5667
  220.0000      0.5325
  221.0000      0.4983
  222.0000      0.4688
  223.0000      0.4406
  224.0000      0.4144
  225.0000      0.3892
  226.0000      0.3671
  227.0000      0.3474
  228.0000      0.3300
  229.0000      0.3130
  230.0000      0.2990
  231.0000      0.2869
  232.0000      0.2760
  233.0000      0.2644
  234.0000      0.2556
  235.0000      0.2476
  236.0000      0.2413
  237.0000      0.2345
  238.0000      0.2290
  239.0000      0.2245
  240.0000      0.2197
  241.0000      0.2158
  242.0000      0.2131
  243.0000      0.2098
  244.0000      0.2070
  245.0000      0.2043
  246.0000      0.2023
  247.0000      0.2008
  248.0000      0.1977
  249.0000      0.1957
  250.0000      0.1939
  251.0000      0.1926
  252.0000      0.1917
  253.0000      0.1896
  254.0000      0.1882
  255.0000      0.1868
  256.0000      0.1853
  257.0000      0.1847
  258.0000      0.1835
  259.0000      0.1820
  260.0000      0.1811
  261.0000      0.1795
  262.0000      0.1786
  263.0000      0.1768
  264.0000      0.1748
  265.0000      0.1738
  266.0000      0.1725
  267.0000      0.1714
  268.0000      0.1701
  269.0000      0.1681
  270.0000      0.1663
  271.0000      0.1647
  272.0000      0.1633
  273.0000      0.1624
  274.0000      0.1605
  275.0000      0.1590
  276.0000      0.1572
  277.0000      0.1559
  278.0000      0.1543
  279.0000      0.1525
  280.0000      0.1508
  281.0000      0.1492
  282.0000      0.1473
  283.0000      0.1456
  284.0000      0.1442
  285.0000      0.1417
  286.0000      0.1399
  287.0000      0.1389
  288.0000      0.1364
  289.0000      0.1353
  290.0000      0.1336
  291.0000      0.1310
  292.0000      0.1296
  293.0000      0.1280
  294.0000      0.1265
  295.0000      0.1247
  296.0000      0.1234
  297.0000      0.1224
  298.0000      0.1206
  299.0000      0.1197
  300.0000      0.1175
  301.0000      0.1165
  302.0000      0.1144
  303.0000      0.1139
  304.0000      0.1130
  305.0000      0.1113
  306.0000      0.1101
  307.0000      0.1083
  308.0000      0.1076
  309.0000      0.1071
  310.0000      0.1054
  311.0000      0.1043
  312.0000      0.1030
  313.0000      0.1019
  314.0000      0.1009
  315.0000      0.0993
  316.0000      0.0987
  317.0000      0.0984
  318.0000      0.0969
  319.0000      0.0963
  320.0000      0.0950
  321.0000      0.0939
  322.0000      0.0927
  323.0000      0.0908
  324.0000      0.0901
  325.0000      0.0895
  326.0000      0.0885
  327.0000      0.0880
  328.0000      0.0871
  329.0000      0.0864
  330.0000      0.0855
  331.0000      0.0842
  332.0000      0.0837
  333.0000      0.0829
  334.0000      0.0822
  335.0000      0.0816
  336.0000      0.0805
  337.0000      0.0801
  338.0000      0.0787
  339.0000      0.0783
  340.0000      0.0783
  341.0000      0.0773
  342.0000      0.0772
  343.0000      0.0761
  344.0000      0.0757
  345.0000      0.0752
  346.0000      0.0743
  347.0000      0.0737
  348.0000      0.0733
  349.0000      0.0728
  350.0000      0.0726
  351.0000      0.0720
  352.0000      0.0710
  353.0000      0.0703
  354.0000      0.0701
  355.0000      0.0700
  356.0000      0.0698
  357.0000      0.0691
  358.0000      0.0683
  359.0000      0.0667
  360.0000      0.0685
  361.0000      0.0672
  362.0000      0.0653
  363.0000      0.0648
  364.0000      0.0653
  365.0000      0.0645
  366.0000      0.0636
  367.0000      0.0633
  368.0000      0.0623
  369.0000      0.0628
  370.0000      0.0624
  371.0000      0.0615
  372.0000      0.0620
  373.0000      0.0603
  374.0000      0.0608
  375.0000      0.0594
  376.0000      0.0589
  377.0000      0.0590
  378.0000      0.0588
  379.0000      0.0591
  380.0000      0.0593
  381.0000      0.0582
  382.0000      0.0569
  383.0000      0.0565
  384.0000      0.0571
  385.0000      0.0571
  386.0000      0.0561
  387.0000      0.0551
  388.0000      0.0549
  389.0000      0.0549
  390.0000      0.0550
  391.0000      0.0549
  392.0000      0.0542
  393.0000      0.0537
  394.0000      0.0531
  395.0000      0.0526
  396.0000      0.0527
  397.0000      0.0528
  398.0000      0.0525
  399.0000      0.0519
  400.0000      0.0512
  401.0000      0.0510
  402.0000      0.0504
  403.0000      0.0507
  404.0000      0.0507
  405.0000      0.0506
  406.0000      0.0500
  407.0000      0.0500
  408.0000      0.0498
  409.0000      0.0497
  410.0000      0.0491
  411.0000      0.0487
  412.0000      0.0490
  413.0000      0.0485
  414.0000      0.0483
  415.0000      0.0480
  416.0000      0.0479
  417.0000      0.0478
  418.0000      0.0476
  419.0000      0.0474
  420.0000      0.0471
  421.0000      0.0469
  422.0000      0.0468
  423.0000      0.0467
  424.0000      0.0465
  425.0000      0.0464
  426.0000      0.0461
  427.0000      0.0457
  428.0000      0.0456
  429.0000      0.0454
  430.0000      0.0453
  431.0000      0.0450
  432.0000      0.0449
  433.0000      0.0446
  434.0000      0.0445
  435.0000      0.0443
  436.0000      0.0441
  437.0000      0.0439
  438.0000      0.0437
  439.0000      0.0435
  440.0000      0.0433
  441.0000      0.0430
  442.0000      0.0428
  443.0000      0.0426
  444.0000      0.0425
  445.0000      0.0422
  446.0000      0.0420
  447.0000      0.0418
  448.0000      0.0415
  449.0000      0.0414
  450.0000      0.0411
  451.0000      0.0409
  452.0000      0.0407
  453.0000      0.0405
  454.0000      0.0403
  455.0000      0.0401
  456.0000      0.0399
  457.0000      0.0398
  458.0000      0.0396
  459.0000      0.0393
  460.0000      0.0391
  461.0000      0.0390
  462.0000      0.0389
  463.0000      0.0388
  464.0000      0.0387
  465.0000      0.0386
  466.0000      0.0385
  467.0000      0.0384
  468.0000      0.0384
  469.0000      0.0382
  470.0000      0.0380
  471.0000      0.0379
  472.0000      0.0377
  473.0000      0.0376
  474.0000      0.0375
  475.0000      0.0373
  476.0000      0.0372
  477.0000      0.0371
  478.0000      0.0369
  479.0000      0.0369
  480.0000      0.0367
  481.0000      0.0366
  482.0000      0.0365
  483.0000      0.0363
  484.0000      0.0363
  485.0000      0.0362
  486.0000      0.0361
  487.0000      0.0360
  488.0000      0.0358
  489.0000      0.0357
  490.0000      0.0355
  491.0000      0.0354
  492.0000      0.0353
  493.0000      0.0352
  494.0000      0.0351
  495.0000      0.0349
  496.0000      0.0348
  497.0000      0.0347
  498.0000      0.0346
  499.0000      0.0344
  500.0000      0.0344
  501.0000      0.0342
  502.0000      0.0342
  503.0000      0.0341
  504.0000      0.0340
  505.0000      0.0339
  506.0000      0.0338
  507.0000      0.0338
  508.0000      0.0337
  509.0000      0.0336
  510.0000      0.0336
  511.0000      0.0335
  512.0000      0.0335
  513.0000      0.0335
  514.0000      0.0334
  515.0000      0.0334
  516.0000      0.0333
  517.0000      0.0333
  518.0000      0.0333
  519.0000      0.0333
  520.0000      0.0332
  521.0000      0.0332
  522.0000      0.0332
  523.0000      0.0331
  524.0000      0.0331
  525.0000      0.0330
  526.0000      0.0330
  527.0000      0.0329
  528.0000      0.0329
  529.0000      0.0329
  530.0000      0.0329
  531.0000      0.0329
  532.0000      0.0328
  533.0000      0.0328
  534.0000      0.0327
  535.0000      0.0327
  536.0000      0.0326
  537.0000      0.0325
  538.0000      0.0324
  539.0000      0.0323
  540.0000      0.0322
  541.0000      0.0322
  542.0000      0.0321
  543.0000      0.0321
  544.0000      0.0320
  545.0000      0.0320
  546.0000      0.0320
  547.0000      0.0319
  548.0000      0.0319
  549.0000      0.0318
  550.0000      0.0318
  551.0000      0.0317
  552.0000      0.0316
  553.0000      0.0316
  554.0000      0.0315
  555.0000      0.0315
  556.0000      0.0315
  557.0000      0.0313
  558.0000      0.0312
  559.0000      0.0311
  560.0000      0.0310
  561.0000      0.0309
  562.0000      0.0308
  563.0000      0.0307
  564.0000      0.0306
  565.0000      0.0306
  566.0000      0.0305
  567.0000      0.0304
  568.0000      0.0304
  569.0000      0.0304
  570.0000      0.0303
  571.0000      0.0302
  572.0000      0.0302
  573.0000      0.0301
  574.0000      0.0300
  575.0000      0.0300
  576.0000      0.0299
  577.0000      0.0299
  578.0000      0.0298
  579.0000      0.0298
  580.0000      0.0297
  581.0000      0.0297
  582.0000      0.0295
  583.0000      0.0294
  584.0000      0.0293
  585.0000      0.0293
  586.0000      0.0292
  587.0000      0.0292
  588.0000      0.0291
  589.0000      0.0291
  590.0000      0.0291
  591.0000      0.0290
  592.0000      0.0290
  593.0000      0.0289
  594.0000      0.0289
  595.0000      0.0288
  596.0000      0.0287
  597.0000      0.0286
  598.0000      0.0285
  599.0000      0.0284
  600.0000      0.0284
  601.0000      0.0283
  602.0000      0.0282
  603.0000      0.0281
  604.0000      0.0279
  605.0000      0.0278
  606.0000      0.0277
  607.0000      0.0276
  608.0000      0.0276
  609.0000      0.0275
  610.0000      0.0274
  611.0000      0.0273
  612.0000      0.0273
  613.0000      0.0273
  614.0000      0.0272
  615.0000      0.0272
  616.0000      0.0272
  617.0000      0.0271
  618.0000      0.0270
  619.0000      0.0271
  620.0000      0.0270
  621.0000      0.0271
  622.0000      0.0271
  623.0000      0.0270
  624.0000      0.0270
  625.0000      0.0269
  626.0000      0.0269
  627.0000      0.0269
  628.0000      0.0268
  629.0000      0.0268
  630.0000      0.0268
  631.0000      0.0268
  632.0000      0.0267
  633.0000      0.0267
  634.0000      0.0267
  635.0000      0.0267
  636.0000      0.0266
  637.0000      0.0266
  638.0000      0.0265
  639.0000      0.0264
  640.0000      0.0264
  641.0000      0.0263
  642.0000      0.0263
  643.0000      0.0263
  644.0000      0.0263
  645.0000      0.0263
  646.0000      0.0262
  647.0000      0.0262
  648.0000      0.0262
  649.0000      0.0262
  650.0000      0.0262
  651.0000      0.0262
  652.0000      0.0262
  653.0000      0.0262
  654.0000      0.0262
  655.0000      0.0261
  656.0000      0.0261
  657.0000      0.0261
  658.0000      0.0261
  659.0000      0.0261
  660.0000      0.0262
  661.0000      0.0261
  662.0000      0.0260
  663.0000      0.0260
  664.0000      0.0259
  665.0000      0.0259
  666.0000      0.0260
  667.0000      0.0259
  668.0000      0.0259
  669.0000      0.0258
  670.0000      0.0258
  671.0000      0.0258
  672.0000      0.0258
  673.0000      0.0258
  674.0000      0.0258
  675.0000      0.0258
  676.0000      0.0258
  677.0000      0.0258
  678.0000      0.0258
  679.0000      0.0258
  680.0000      0.0257
  681.0000      0.0257
  682.0000      0.0257
  683.0000      0.0256
  684.0000      0.0256
  685.0000      0.0255
  686.0000      0.0254
  687.0000      0.0254
  688.0000      0.0253
  689.0000      0.0252
  690.0000      0.0252
  691.0000      0.0251
  692.0000      0.0251
  693.0000      0.0251
  694.0000      0.0250
  695.0000      0.0249
  696.0000      0.0248
  697.0000      0.0248
  698.0000      0.0247
  699.0000      0.0246
  700.0000      0.0245
  701.0000      0.0245
  702.0000      0.0244
  703.0000      0.0243
  704.0000      0.0243
  705.0000      0.0242
  706.0000      0.0242
  707.0000      0.0242
  708.0000      0.0241
  709.0000      0.0240
  710.0000      0.0239
  711.0000      0.0239
  712.0000      0.0239
  713.0000      0.0238
  714.0000      0.0237
  715.0000      0.0237
  716.0000      0.0237
  717.0000      0.0236
  718.0000      0.0235
  719.0000      0.0235
  720.0000      0.0234
  721.0000      0.0233
  722.0000      0.0232
  723.0000      0.0232
  724.0000      0.0232
  725.0000      0.0231
  726.0000      0.0231
  727.0000      0.0231
  728.0000      0.0230
  729.0000      0.0229
  730.0000      0.0228
  731.0000      0.0228
  732.0000      0.0227
  733.0000      0.0227
  734.0000      0.0226
  735.0000      0.0226
  736.0000      0.0226
  737.0000      0.0225
  738.0000      0.0226
  739.0000      0.0226
  740.0000      0.0225
  741.0000      0.0225
  742.0000      0.0225
  743.0000      0.0224
  744.0000      0.0224
  745.0000      0.0224
  746.0000      0.0224
  747.0000      0.0224
  748.0000      0.0224
  749.0000      0.0224
  750.0000      0.0225
  751.0000      0.0225
  752.0000      0.0226
  753.0000      0.0226
  754.0000      0.0226
  755.0000      0.0226
  756.0000      0.0227
  757.0000      0.0227
  758.0000      0.0227
  759.0000      0.0228
  760.0000      0.0229
  761.0000      0.0229
  762.0000      0.0229
  763.0000      0.0229
  764.0000      0.0230
  765.0000      0.0230
  766.0000      0.0230
  767.0000      0.0231
  768.0000      0.0231
  769.0000      0.0232
  770.0000      0.0232
  771.0000      0.0233
  772.0000      0.0232
  773.0000      0.0232
  774.0000      0.0232
  775.0000      0.0232
  776.0000      0.0231
  777.0000      0.0230
  778.0000      0.0229
  779.0000      0.0229
  780.0000      0.0227
  781.0000      0.0226
  782.0000      0.0226
  783.0000      0.0225
  784.0000      0.0224
  785.0000      0.0223
  786.0000      0.0223
  787.0000      0.0222
  788.0000      0.0221
  789.0000      0.0220
  790.0000      0.0219
  791.0000      0.0218
  792.0000      0.0217
  793.0000      0.0217
  794.0000      0.0216
  795.0000      0.0214
  796.0000      0.0213
  797.0000      0.0212
  798.0000      0.0211
  799.0000      0.0211
  800.0000      0.0210
