Start Wavelength:    200.0000
End Wavelength:    800.0000
Read Mode:  ABS
Read Average:      0.1000
Nanometer Interval:      1.0000
Time:      0.0000

  200.0000      1.2434
  201.0000      1.1662
  202.0000      1.1372
  203.0000      1.1019
  204.0000      1.0763
  205.0000      1.0459
  206.0000      1.0200
  207.0000      0.9916
  208.0000      0.9587
  209.0000      0.9271
  210.0000      0.8961
  211.0000      0.8603
  212.0000      0.8237
  213.0000      0.7848
  214.0000      0.7467
  215.0000      0.7090
  216.0000      0.6714
  217.0000      0.6316
  218.0000      0.5955
  219.0000      0.5607
  220.0000      0.5271
  221.0000      0.4933
  222.0000      0.4631
  223.0000      0.4354
  224.0000      0.4098
  225.0000      0.3841
  226.0000      0.3631
  227.0000      0.3440
  228.0000      0.3262
  229.0000      0.3089
  230.0000      0.2948
  231.0000      0.2823
  232.0000      0.2712
  233.0000      0.2599
  234.0000      0.2510
  235.0000      0.2432
  236.0000      0.2366
  237.0000      0.2298
  238.0000      0.2243
  239.0000      0.2193
  240.0000      0.2151
  241.0000      0.2111
  242.0000      0.2078
  243.0000      0.2048
  244.0000      0.2021
  245.0000      0.1993
  246.0000      0.1970
  247.0000      0.1953
  248.0000      0.1931
  249.0000      0.1914
  250.0000      0.1899
  251.0000      0.1885
  252.0000      0.1869
  253.0000      0.1854
  254.0000      0.1843
  255.0000      0.1829
  256.0000      0.1816
  257.0000      0.1807
  258.0000      0.1796
  259.0000      0.1780
  260.0000      0.1767
  261.0000      0.1759
  262.0000      0.1743
  263.0000      0.1729
  264.0000      0.1717
  265.0000      0.1701
  266.0000      0.1690
  267.0000      0.1674
  268.0000      0.1662
  269.0000      0.1649
  270.0000      0.1633
  271.0000      0.1620
  272.0000      0.1608
  273.0000      0.1592
  274.0000      0.1574
  275.0000      0.1555
  276.0000      0.1541
  277.0000      0.1524
  278.0000      0.1513
  279.0000      0.1495
  280.0000      0.1481
  281.0000      0.1464
  282.0000      0.1439
  283.0000      0.1424
  284.0000      0.1410
  285.0000      0.1388
  286.0000      0.1373
  287.0000      0.1357
  288.0000      0.1339
  289.0000      0.1325
  290.0000      0.1301
  291.0000      0.1279
  292.0000      0.1268
  293.0000      0.1249
  294.0000      0.1238
  295.0000      0.1217
  296.0000      0.1201
  297.0000      0.1189
  298.0000      0.1168
  299.0000      0.1158
  300.0000      0.1144
  301.0000      0.1125
  302.0000      0.1115
  303.0000      0.1105
  304.0000      0.1092
  305.0000      0.1076
  306.0000      0.1067
  307.0000      0.1055
  308.0000      0.1049
  309.0000      0.1041
  310.0000      0.1026
  311.0000      0.1013
  312.0000      0.1007
  313.0000      0.0997
  314.0000      0.0982
  315.0000      0.0971
  316.0000      0.0960
  317.0000      0.0951
  318.0000      0.0946
  319.0000      0.0937
  320.0000      0.0927
  321.0000      0.0916
  322.0000      0.0911
  323.0000      0.0896
  324.0000      0.0890
  325.0000      0.0886
  326.0000      0.0873
  327.0000      0.0869
  328.0000      0.0859
  329.0000      0.0852
  330.0000      0.0848
  331.0000      0.0835
  332.0000      0.0830
  333.0000      0.0824
  334.0000      0.0816
  335.0000      0.0814
  336.0000      0.0801
  337.0000      0.0797
  338.0000      0.0787
  339.0000      0.0783
  340.0000      0.0786
  341.0000      0.0771
  342.0000      0.0770
  343.0000      0.0761
  344.0000      0.0757
  345.0000      0.0753
  346.0000      0.0749
  347.0000      0.0738
  348.0000      0.0735
  349.0000      0.0732
  350.0000      0.0728
  351.0000      0.0723
  352.0000      0.0716
  353.0000      0.0713
  354.0000      0.0707
  355.0000      0.0702
  356.0000      0.0698
  357.0000      0.0681
  358.0000      0.0669
  359.0000      0.0660
  360.0000      0.0678
  361.0000      0.0666
  362.0000      0.0651
  363.0000      0.0648
  364.0000      0.0649
  365.0000      0.0641
  366.0000      0.0633
  367.0000      0.0631
  368.0000      0.0616
  369.0000      0.0628
  370.0000      0.0619
  371.0000      0.0615
  372.0000      0.0611
  373.0000      0.0597
  374.0000      0.0610
  375.0000      0.0599
  376.0000      0.0597
  377.0000      0.0594
  378.0000      0.0586
  379.0000      0.0584
  380.0000      0.0587
  381.0000      0.0584
  382.0000      0.0578
  383.0000      0.0572
  384.0000      0.0575
  385.0000      0.0572
  386.0000      0.0569
  387.0000      0.0563
  388.0000      0.0556
  389.0000      0.0557
  390.0000      0.0562
  391.0000      0.0554
  392.0000      0.0546
  393.0000      0.0547
  394.0000      0.0541
  395.0000      0.0539
  396.0000      0.0535
  397.0000      0.0534
  398.0000      0.0533
  399.0000      0.0523
  400.0000      0.0520
  401.0000      0.0519
  402.0000      0.0517
  403.0000      0.0512
  404.0000      0.0513
  405.0000      0.0510
  406.0000      0.0503
  407.0000      0.0503
  408.0000      0.0502
  409.0000      0.0503
  410.0000      0.0497
  411.0000      0.0495
  412.0000      0.0493
  413.0000      0.0491
  414.0000      0.0488
  415.0000      0.0485
  416.0000      0.0474
  417.0000      0.0472
  418.0000      0.0470
  419.0000      0.0466
  420.0000      0.0464
  421.0000      0.0462
  422.0000      0.0459
  423.0000      0.0457
  424.0000      0.0455
  425.0000      0.0454
  426.0000      0.0450
  427.0000      0.0449
  428.0000      0.0447
  429.0000      0.0446
  430.0000      0.0444
  431.0000      0.0443
  432.0000      0.0441
  433.0000      0.0439
  434.0000      0.0438
  435.0000      0.0436
  436.0000      0.0435
  437.0000      0.0434
  438.0000      0.0432
  439.0000      0.0430
  440.0000      0.0428
  441.0000      0.0426
  442.0000      0.0425
  443.0000      0.0422
  444.0000      0.0422
  445.0000      0.0419
  446.0000      0.0418
  447.0000      0.0416
  448.0000      0.0414
  449.0000      0.0413
  450.0000      0.0411
  451.0000      0.0409
  452.0000      0.0407
  453.0000      0.0406
  454.0000      0.0404
  455.0000      0.0403
  456.0000      0.0400
  457.0000      0.0400
  458.0000      0.0398
  459.0000      0.0397
  460.0000      0.0395
  461.0000      0.0395
  462.0000      0.0393
  463.0000      0.0392
  464.0000      0.0391
  465.0000      0.0390
  466.0000      0.0388
  467.0000      0.0386
  468.0000      0.0384
  469.0000      0.0382
  470.0000      0.0380
  471.0000      0.0378
  472.0000      0.0376
  473.0000      0.0374
  474.0000      0.0373
  475.0000      0.0371
  476.0000      0.0370
  477.0000      0.0368
  478.0000      0.0367
  479.0000      0.0366
  480.0000      0.0366
  481.0000      0.0365
  482.0000      0.0364
  483.0000      0.0363
  484.0000      0.0362
  485.0000      0.0362
  486.0000      0.0361
  487.0000      0.0361
  488.0000      0.0360
  489.0000      0.0359
  490.0000      0.0358
  491.0000      0.0358
  492.0000      0.0357
  493.0000      0.0357
  494.0000      0.0356
  495.0000      0.0356
  496.0000      0.0356
  497.0000      0.0355
  498.0000      0.0355
  499.0000      0.0355
  500.0000      0.0355
  501.0000      0.0355
  502.0000      0.0355
  503.0000      0.0354
  504.0000      0.0353
  505.0000      0.0351
  506.0000      0.0351
  507.0000      0.0349
  508.0000      0.0348
  509.0000      0.0347
  510.0000      0.0346
  511.0000      0.0346
  512.0000      0.0346
  513.0000      0.0346
  514.0000      0.0346
  515.0000      0.0346
  516.0000      0.0347
  517.0000      0.0350
  518.0000      0.0354
  519.0000      0.0358
  520.0000      0.0359
  521.0000      0.0359
  522.0000      0.0359
  523.0000      0.0358
  524.0000      0.0358
  525.0000      0.0358
  526.0000      0.0358
  527.0000      0.0358
  528.0000      0.0358
  529.0000      0.0358
  530.0000      0.0358
  531.0000      0.0357
  532.0000      0.0357
  533.0000      0.0356
  534.0000      0.0356
  535.0000      0.0355
  536.0000      0.0354
  537.0000      0.0353
  538.0000      0.0353
  539.0000      0.0351
  540.0000      0.0348
  541.0000      0.0346
  542.0000      0.0343
  543.0000      0.0341
  544.0000      0.0340
  545.0000      0.0338
  546.0000      0.0336
  547.0000      0.0334
  548.0000      0.0333
  549.0000      0.0332
  550.0000      0.0330
  551.0000      0.0328
  552.0000      0.0324
  553.0000      0.0319
  554.0000      0.0316
  555.0000      0.0312
  556.0000      0.0310
  557.0000      0.0313
  558.0000      0.0312
  559.0000      0.0311
  560.0000      0.0311
  561.0000      0.0310
  562.0000      0.0309
  563.0000      0.0309
  564.0000      0.0309
  565.0000      0.0308
  566.0000      0.0307
  567.0000      0.0308
  568.0000      0.0307
  569.0000      0.0307
  570.0000      0.0305
  571.0000      0.0304
  572.0000      0.0302
  573.0000      0.0300
  574.0000      0.0299
  575.0000      0.0297
  576.0000      0.0296
  577.0000      0.0295
  578.0000      0.0293
  579.0000      0.0292
  580.0000      0.0291
  581.0000      0.0290
  582.0000      0.0289
  583.0000      0.0289
  584.0000      0.0289
  585.0000      0.0289
  586.0000      0.0289
  587.0000      0.0287
  588.0000      0.0285
  589.0000      0.0284
  590.0000      0.0284
  591.0000      0.0284
  592.0000      0.0284
  593.0000      0.0284
  594.0000      0.0283
  595.0000      0.0283
  596.0000      0.0282
  597.0000      0.0282
  598.0000      0.0282
  599.0000      0.0281
  600.0000      0.0281
  601.0000      0.0281
  602.0000      0.0280
  603.0000      0.0280
  604.0000      0.0280
  605.0000      0.0278
  606.0000      0.0278
  607.0000      0.0278
  608.0000      0.0278
  609.0000      0.0279
  610.0000      0.0279
  611.0000      0.0279
  612.0000      0.0279
  613.0000      0.0279
  614.0000      0.0278
  615.0000      0.0279
  616.0000      0.0280
  617.0000      0.0280
  618.0000      0.0280
  619.0000      0.0281
  620.0000      0.0281
  621.0000      0.0280
  622.0000      0.0280
  623.0000      0.0280
  624.0000      0.0280
  625.0000      0.0278
  626.0000      0.0278
  627.0000      0.0277
  628.0000      0.0276
  629.0000      0.0275
  630.0000      0.0274
  631.0000      0.0273
  632.0000      0.0272
  633.0000      0.0271
  634.0000      0.0271
  635.0000      0.0270
  636.0000      0.0269
  637.0000      0.0268
  638.0000      0.0267
  639.0000      0.0267
  640.0000      0.0267
  641.0000      0.0266
  642.0000      0.0263
  643.0000      0.0262
  644.0000      0.0261
  645.0000      0.0259
  646.0000      0.0258
  647.0000      0.0258
  648.0000      0.0258
  649.0000      0.0259
  650.0000      0.0259
  651.0000      0.0259
  652.0000      0.0259
  653.0000      0.0259
  654.0000      0.0260
  655.0000      0.0259
  656.0000      0.0260
  657.0000      0.0259
  658.0000      0.0259
  659.0000      0.0259
  660.0000      0.0260
  661.0000      0.0261
  662.0000      0.0261
  663.0000      0.0262
  664.0000      0.0263
  665.0000      0.0263
  666.0000      0.0263
  667.0000      0.0264
  668.0000      0.0264
  669.0000      0.0264
  670.0000      0.0265
  671.0000      0.0266
  672.0000      0.0266
  673.0000      0.0266
  674.0000      0.0267
  675.0000      0.0266
  676.0000      0.0266
  677.0000      0.0266
  678.0000      0.0265
  679.0000      0.0265
  680.0000      0.0263
  681.0000      0.0263
  682.0000      0.0262
  683.0000      0.0261
  684.0000      0.0259
  685.0000      0.0258
  686.0000      0.0257
  687.0000      0.0256
  688.0000      0.0256
  689.0000      0.0255
  690.0000      0.0254
  691.0000      0.0253
  692.0000      0.0253
  693.0000      0.0252
  694.0000      0.0250
  695.0000      0.0250
  696.0000      0.0249
  697.0000      0.0248
  698.0000      0.0247
  699.0000      0.0246
  700.0000      0.0245
  701.0000      0.0245
  702.0000      0.0244
  703.0000      0.0244
  704.0000      0.0244
  705.0000      0.0243
  706.0000      0.0243
  707.0000      0.0243
  708.0000      0.0242
  709.0000      0.0242
  710.0000      0.0241
  711.0000      0.0242
  712.0000      0.0241
  713.0000      0.0240
  714.0000      0.0240
  715.0000      0.0240
  716.0000      0.0240
  717.0000      0.0239
  718.0000      0.0239
  719.0000      0.0238
  720.0000      0.0238
  721.0000      0.0237
  722.0000      0.0237
  723.0000      0.0237
  724.0000      0.0237
  725.0000      0.0236
  726.0000      0.0235
  727.0000      0.0234
  728.0000      0.0234
  729.0000      0.0233
  730.0000      0.0233
  731.0000      0.0232
  732.0000      0.0231
  733.0000      0.0231
  734.0000      0.0231
  735.0000      0.0230
  736.0000      0.0258
  737.0000      0.0259
  738.0000      0.0259
  739.0000      0.0259
  740.0000      0.0260
  741.0000      0.0260
  742.0000      0.0260
  743.0000      0.0261
  744.0000      0.0261
  745.0000      0.0260
  746.0000      0.0259
  747.0000      0.0257
  748.0000      0.0255
  749.0000      0.0254
  750.0000      0.0252
  751.0000      0.0249
  752.0000      0.0247
  753.0000      0.0245
  754.0000      0.0243
  755.0000      0.0239
  756.0000      0.0237
  757.0000      0.0234
  758.0000      0.0232
  759.0000      0.0229
  760.0000      0.0227
  761.0000      0.0225
  762.0000      0.0223
  763.0000      0.0222
  764.0000      0.0222
  765.0000      0.0221
  766.0000      0.0220
  767.0000      0.0220
  768.0000      0.0219
  769.0000      0.0218
  770.0000      0.0219
  771.0000      0.0219
  772.0000      0.0218
  773.0000      0.0218
  774.0000      0.0219
  775.0000      0.0218
  776.0000      0.0218
  777.0000      0.0218
  778.0000      0.0218
  779.0000      0.0217
  780.0000      0.0217
  781.0000      0.0217
  782.0000      0.0217
  783.0000      0.0216
  784.0000      0.0216
  785.0000      0.0215
  786.0000      0.0215
  787.0000      0.0215
  788.0000      0.0215
  789.0000      0.0215
  790.0000      0.0215
  791.0000      0.0216
  792.0000      0.0215
  793.0000      0.0216
  794.0000      0.0216
  795.0000      0.0216
  796.0000      0.0215
  797.0000      0.0216
  798.0000      0.0217
  799.0000      0.0217
  800.0000      0.0216
