Start Wavelength:    200.0000
End Wavelength:    800.0000
Read Mode:  ABS
Read Average:      0.1000
Nanometer Interval:      1.0000
Time:      0.0000

  200.0000      2.2620
  201.0000      2.1496
  202.0000      2.0772
  203.0000      2.1419
  204.0000      2.1370
  205.0000      2.0329
  206.0000      2.0068
  207.0000      1.9474
  208.0000      1.9192
  209.0000      1.8493
  210.0000      1.7976
  211.0000      1.7291
  212.0000      1.6372
  213.0000      1.5410
  214.0000      1.4567
  215.0000      1.3815
  216.0000      1.3049
  217.0000      1.2112
  218.0000      1.1305
  219.0000      1.0515
  220.0000      0.9762
  221.0000      0.9004
  222.0000      0.8334
  223.0000      0.7717
  224.0000      0.7159
  225.0000      0.6600
  226.0000      0.6129
  227.0000      0.5710
  228.0000      0.5337
  229.0000      0.4981
  230.0000      0.4695
  231.0000      0.4437
  232.0000      0.4218
  233.0000      0.3998
  234.0000      0.3828
  235.0000      0.3683
  236.0000      0.3556
  237.0000      0.3442
  238.0000      0.3348
  239.0000      0.3264
  240.0000      0.3191
  241.0000      0.3124
  242.0000      0.3074
  243.0000      0.3028
  244.0000      0.2986
  245.0000      0.2944
  246.0000      0.2909
  247.0000      0.2881
  248.0000      0.2849
  249.0000      0.2820
  250.0000      0.2799
  251.0000      0.2775
  252.0000      0.2758
  253.0000      0.2738
  254.0000      0.2720
  255.0000      0.2702
  256.0000      0.2683
  257.0000      0.2669
  258.0000      0.2650
  259.0000      0.2639
  260.0000      0.2618
  261.0000      0.2603
  262.0000      0.2586
  263.0000      0.2570
  264.0000      0.2549
  265.0000      0.2538
  266.0000      0.2515
  267.0000      0.2492
  268.0000      0.2481
  269.0000      0.2458
  270.0000      0.2441
  271.0000      0.2422
  272.0000      0.2400
  273.0000      0.2384
  274.0000      0.2362
  275.0000      0.2346
  276.0000      0.2321
  277.0000      0.2308
  278.0000      0.2289
  279.0000      0.2268
  280.0000      0.2246
  281.0000      0.2226
  282.0000      0.2194
  283.0000      0.2170
  284.0000      0.2162
  285.0000      0.2129
  286.0000      0.2109
  287.0000      0.2087
  288.0000      0.2062
  289.0000      0.2034
  290.0000      0.2009
  291.0000      0.1992
  292.0000      0.1973
  293.0000      0.1959
  294.0000      0.1932
  295.0000      0.1906
  296.0000      0.1888
  297.0000      0.1873
  298.0000      0.1856
  299.0000      0.1839
  300.0000      0.1816
  301.0000      0.1794
  302.0000      0.1776
  303.0000      0.1762
  304.0000      0.1746
  305.0000      0.1730
  306.0000      0.1712
  307.0000      0.1697
  308.0000      0.1678
  309.0000      0.1669
  310.0000      0.1648
  311.0000      0.1635
  312.0000      0.1627
  313.0000      0.1611
  314.0000      0.1590
  315.0000      0.1575
  316.0000      0.1557
  317.0000      0.1553
  318.0000      0.1545
  319.0000      0.1535
  320.0000      0.1521
  321.0000      0.1505
  322.0000      0.1505
  323.0000      0.1496
  324.0000      0.1484
  325.0000      0.1476
  326.0000      0.1458
  327.0000      0.1447
  328.0000      0.1434
  329.0000      0.1426
  330.0000      0.1419
  331.0000      0.1402
  332.0000      0.1394
  333.0000      0.1381
  334.0000      0.1369
  335.0000      0.1362
  336.0000      0.1349
  337.0000      0.1339
  338.0000      0.1326
  339.0000      0.1313
  340.0000      0.1309
  341.0000      0.1294
  342.0000      0.1290
  343.0000      0.1280
  344.0000      0.1274
  345.0000      0.1265
  346.0000      0.1256
  347.0000      0.1245
  348.0000      0.1242
  349.0000      0.1237
  350.0000      0.1233
  351.0000      0.1225
  352.0000      0.1217
  353.0000      0.1207
  354.0000      0.1200
  355.0000      0.1197
  356.0000      0.1194
  357.0000      0.1202
  358.0000      0.1178
  359.0000      0.1166
  360.0000      0.1173
  361.0000      0.1174
  362.0000      0.1154
  363.0000      0.1154
  364.0000      0.1157
  365.0000      0.1138
  366.0000      0.1135
  367.0000      0.1136
  368.0000      0.1116
  369.0000      0.1123
  370.0000      0.1121
  371.0000      0.1107
  372.0000      0.1101
  373.0000      0.1092
  374.0000      0.1102
  375.0000      0.1090
  376.0000      0.1088
  377.0000      0.1077
  378.0000      0.1065
  379.0000      0.1066
  380.0000      0.1068
  381.0000      0.1060
  382.0000      0.1050
  383.0000      0.1041
  384.0000      0.1043
  385.0000      0.1035
  386.0000      0.1023
  387.0000      0.1021
  388.0000      0.1009
  389.0000      0.1010
  390.0000      0.1002
  391.0000      0.0997
  392.0000      0.0994
  393.0000      0.0987
  394.0000      0.0981
  395.0000      0.0976
  396.0000      0.0969
  397.0000      0.0968
  398.0000      0.0965
  399.0000      0.0959
  400.0000      0.0953
  401.0000      0.0949
  402.0000      0.0945
  403.0000      0.0945
  404.0000      0.0945
  405.0000      0.0942
  406.0000      0.0937
  407.0000      0.0936
  408.0000      0.0934
  409.0000      0.0930
  410.0000      0.0929
  411.0000      0.0927
  412.0000      0.0924
  413.0000      0.0920
  414.0000      0.0916
  415.0000      0.0914
  416.0000      0.0913
  417.0000      0.0908
  418.0000      0.0904
  419.0000      0.0901
  420.0000      0.0899
  421.0000      0.0897
  422.0000      0.0894
  423.0000      0.0892
  424.0000      0.0890
  425.0000      0.0887
  426.0000      0.0882
  427.0000      0.0878
  428.0000      0.0874
  429.0000      0.0870
  430.0000      0.0866
  431.0000      0.0862
  432.0000      0.0857
  433.0000      0.0854
  434.0000      0.0851
  435.0000      0.0846
  436.0000      0.0843
  437.0000      0.0840
  438.0000      0.0837
  439.0000      0.0834
  440.0000      0.0831
  441.0000      0.0829
  442.0000      0.0826
  443.0000      0.0823
  444.0000      0.0821
  445.0000      0.0818
  446.0000      0.0815
  447.0000      0.0813
  448.0000      0.0810
  449.0000      0.0808
  450.0000      0.0805
  451.0000      0.0802
  452.0000      0.0800
  453.0000      0.0796
  454.0000      0.0793
  455.0000      0.0790
  456.0000      0.0787
  457.0000      0.0786
  458.0000      0.0782
  459.0000      0.0778
  460.0000      0.0774
  461.0000      0.0770
  462.0000      0.0767
  463.0000      0.0764
  464.0000      0.0761
  465.0000      0.0759
  466.0000      0.0757
  467.0000      0.0754
  468.0000      0.0751
  469.0000      0.0748
  470.0000      0.0745
  471.0000      0.0741
  472.0000      0.0737
  473.0000      0.0734
  474.0000      0.0731
  475.0000      0.0729
  476.0000      0.0728
  477.0000      0.0727
  478.0000      0.0727
  479.0000      0.0727
  480.0000      0.0727
  481.0000      0.0725
  482.0000      0.0724
  483.0000      0.0722
  484.0000      0.0720
  485.0000      0.0719
  486.0000      0.0717
  487.0000      0.0715
  488.0000      0.0712
  489.0000      0.0710
  490.0000      0.0707
  491.0000      0.0705
  492.0000      0.0702
  493.0000      0.0700
  494.0000      0.0700
  495.0000      0.0698
  496.0000      0.0696
  497.0000      0.0694
  498.0000      0.0692
  499.0000      0.0689
  500.0000      0.0688
  501.0000      0.0686
  502.0000      0.0684
  503.0000      0.0682
  504.0000      0.0681
  505.0000      0.0678
  506.0000      0.0676
  507.0000      0.0673
  508.0000      0.0670
  509.0000      0.0666
  510.0000      0.0663
  511.0000      0.0661
  512.0000      0.0660
  513.0000      0.0657
  514.0000      0.0656
  515.0000      0.0655
  516.0000      0.0654
  517.0000      0.0652
  518.0000      0.0652
  519.0000      0.0650
  520.0000      0.0648
  521.0000      0.0646
  522.0000      0.0643
  523.0000      0.0641
  524.0000      0.0639
  525.0000      0.0638
  526.0000      0.0638
  527.0000      0.0639
  528.0000      0.0638
  529.0000      0.0636
  530.0000      0.0634
  531.0000      0.0632
  532.0000      0.0632
  533.0000      0.0632
  534.0000      0.0632
  535.0000      0.0631
  536.0000      0.0630
  537.0000      0.0630
  538.0000      0.0628
  539.0000      0.0628
  540.0000      0.0627
  541.0000      0.0626
  542.0000      0.0627
  543.0000      0.0626
  544.0000      0.0626
  545.0000      0.0625
  546.0000      0.0546
  547.0000      0.0622
  548.0000      0.0621
  549.0000      0.0619
  550.0000      0.0616
  551.0000      0.0614
  552.0000      0.0612
  553.0000      0.0609
  554.0000      0.0607
  555.0000      0.0604
  556.0000      0.0602
  557.0000      0.0596
  558.0000      0.0595
  559.0000      0.0593
  560.0000      0.0591
  561.0000      0.0590
  562.0000      0.0588
  563.0000      0.0586
  564.0000      0.0583
  565.0000      0.0580
  566.0000      0.0577
  567.0000      0.0575
  568.0000      0.0573
  569.0000      0.0570
  570.0000      0.0569
  571.0000      0.0568
  572.0000      0.0566
  573.0000      0.0563
  574.0000      0.0560
  575.0000      0.0559
  576.0000      0.0557
  577.0000      0.0555
  578.0000      0.0554
  579.0000      0.0552
  580.0000      0.0551
  581.0000      0.0551
  582.0000      0.0550
  583.0000      0.0549
  584.0000      0.0548
  585.0000      0.0547
  586.0000      0.0546
  587.0000      0.0545
  588.0000      0.0544
  589.0000      0.0543
  590.0000      0.0542
  591.0000      0.0542
  592.0000      0.0542
  593.0000      0.0542
  594.0000      0.0542
  595.0000      0.0541
  596.0000      0.0541
  597.0000      0.0541
  598.0000      0.0541
  599.0000      0.0541
  600.0000      0.0540
  601.0000      0.0540
  602.0000      0.0539
  603.0000      0.0539
  604.0000      0.0538
  605.0000      0.0537
  606.0000      0.0537
  607.0000      0.0537
  608.0000      0.0536
  609.0000      0.0537
  610.0000      0.0539
  611.0000      0.0541
  612.0000      0.0543
  613.0000      0.0545
  614.0000      0.0546
  615.0000      0.0548
  616.0000      0.0548
  617.0000      0.0549
  618.0000      0.0549
  619.0000      0.0550
  620.0000      0.0552
  621.0000      0.0553
  622.0000      0.0554
  623.0000      0.0555
  624.0000      0.0555
  625.0000      0.0556
  626.0000      0.0556
  627.0000      0.0554
  628.0000      0.0552
  629.0000      0.0551
  630.0000      0.0550
  631.0000      0.0550
  632.0000      0.0548
  633.0000      0.0548
  634.0000      0.0547
  635.0000      0.0544
  636.0000      0.0540
  637.0000      0.0536
  638.0000      0.0533
  639.0000      0.0529
  640.0000      0.0527
  641.0000      0.0525
  642.0000      0.0522
  643.0000      0.0520
  644.0000      0.0517
  645.0000      0.0514
  646.0000      0.0511
  647.0000      0.0509
  648.0000      0.0508
  649.0000      0.0507
  650.0000      0.0507
  651.0000      0.0506
  652.0000      0.0506
  653.0000      0.0507
  654.0000      0.0508
  655.0000      0.0509
  656.0000      0.0509
  657.0000      0.0509
  658.0000      0.0510
  659.0000      0.0510
  660.0000      0.0509
  661.0000      0.0510
  662.0000      0.0510
  663.0000      0.0510
  664.0000      0.0510
  665.0000      0.0510
  666.0000      0.0509
  667.0000      0.0508
  668.0000      0.0506
  669.0000      0.0505
  670.0000      0.0504
  671.0000      0.0504
  672.0000      0.0503
  673.0000      0.0503
  674.0000      0.0503
  675.0000      0.0502
  676.0000      0.0502
  677.0000      0.0500
  678.0000      0.0499
  679.0000      0.0497
  680.0000      0.0496
  681.0000      0.0495
  682.0000      0.0495
  683.0000      0.0493
  684.0000      0.0493
  685.0000      0.0492
  686.0000      0.0492
  687.0000      0.0491
  688.0000      0.0490
  689.0000      0.0489
  690.0000      0.0488
  691.0000      0.0486
  692.0000      0.0484
  693.0000      0.0482
  694.0000      0.0481
  695.0000      0.0479
  696.0000      0.0477
  697.0000      0.0475
  698.0000      0.0474
  699.0000      0.0472
  700.0000      0.0469
  701.0000      0.0467
  702.0000      0.0465
  703.0000      0.0464
  704.0000      0.0464
  705.0000      0.0464
  706.0000      0.0464
  707.0000      0.0464
  708.0000      0.0465
  709.0000      0.0465
  710.0000      0.0464
  711.0000      0.0464
  712.0000      0.0464
  713.0000      0.0463
  714.0000      0.0462
  715.0000      0.0462
  716.0000      0.0462
  717.0000      0.0460
  718.0000      0.0459
  719.0000      0.0458
  720.0000      0.0456
  721.0000      0.0455
  722.0000      0.0453
  723.0000      0.0452
  724.0000      0.0450
  725.0000      0.0448
  726.0000      0.0447
  727.0000      0.0446
  728.0000      0.0445
  729.0000      0.0444
  730.0000      0.0443
  731.0000      0.0442
  732.0000      0.0441
  733.0000      0.0440
  734.0000      0.0440
  735.0000      0.0440
  736.0000      0.0455
  737.0000      0.0455
  738.0000      0.0454
  739.0000      0.0453
  740.0000      0.0452
  741.0000      0.0451
  742.0000      0.0450
  743.0000      0.0450
  744.0000      0.0449
  745.0000      0.0449
  746.0000      0.0449
  747.0000      0.0450
  748.0000      0.0449
  749.0000      0.0450
  750.0000      0.0449
  751.0000      0.0449
  752.0000      0.0450
  753.0000      0.0450
  754.0000      0.0450
  755.0000      0.0450
  756.0000      0.0449
  757.0000      0.0448
  758.0000      0.0446
  759.0000      0.0445
  760.0000      0.0445
  761.0000      0.0445
  762.0000      0.0444
  763.0000      0.0443
  764.0000      0.0443
  765.0000      0.0442
  766.0000      0.0442
  767.0000      0.0442
  768.0000      0.0443
  769.0000      0.0443
  770.0000      0.0444
  771.0000      0.0444
  772.0000      0.0444
  773.0000      0.0444
  774.0000      0.0444
  775.0000      0.0445
  776.0000      0.0445
  777.0000      0.0443
  778.0000      0.0442
  779.0000      0.0441
  780.0000      0.0439
  781.0000      0.0438
  782.0000      0.0435
  783.0000      0.0433
  784.0000      0.0431
  785.0000      0.0428
  786.0000      0.0426
  787.0000      0.0424
  788.0000      0.0422
  789.0000      0.0421
  790.0000      0.0420
  791.0000      0.0419
  792.0000      0.0419
  793.0000      0.0419
  794.0000      0.0420
  795.0000      0.0419
  796.0000      0.0420
  797.0000      0.0420
  798.0000      0.0422
  799.0000      0.0422
  800.0000      0.0421
