Start Wavelength:    200.0000
End Wavelength:    800.0000
Read Mode:  ABS
Read Average:      0.1000
Nanometer Interval:      1.0000
Time:      0.0000

  200.0000      2.0512
  201.0000      2.0527
  202.0000      2.0772
  203.0000      1.9609
  204.0000      1.9346
  205.0000      1.8701
  206.0000      1.8862
  207.0000      1.7932
  208.0000      1.7624
  209.0000      1.6939
  210.0000      1.6301
  211.0000      1.5588
  212.0000      1.4786
  213.0000      1.3934
  214.0000      1.3160
  215.0000      1.2382
  216.0000      1.1587
  217.0000      1.0680
  218.0000      0.9944
  219.0000      0.9176
  220.0000      0.8434
  221.0000      0.7704
  222.0000      0.7053
  223.0000      0.6453
  224.0000      0.5903
  225.0000      0.5376
  226.0000      0.4920
  227.0000      0.4518
  228.0000      0.4158
  229.0000      0.3810
  230.0000      0.3534
  231.0000      0.3294
  232.0000      0.3079
  233.0000      0.2874
  234.0000      0.2714
  235.0000      0.2579
  236.0000      0.2460
  237.0000      0.2347
  238.0000      0.2259
  239.0000      0.2182
  240.0000      0.2116
  241.0000      0.2057
  242.0000      0.2012
  243.0000      0.1969
  244.0000      0.1934
  245.0000      0.1899
  246.0000      0.1871
  247.0000      0.1848
  248.0000      0.1824
  249.0000      0.1801
  250.0000      0.1778
  251.0000      0.1764
  252.0000      0.1747
  253.0000      0.1727
  254.0000      0.1713
  255.0000      0.1693
  256.0000      0.1676
  257.0000      0.1665
  258.0000      0.1648
  259.0000      0.1637
  260.0000      0.1621
  261.0000      0.1607
  262.0000      0.1595
  263.0000      0.1575
  264.0000      0.1562
  265.0000      0.1549
  266.0000      0.1530
  267.0000      0.1514
  268.0000      0.1504
  269.0000      0.1487
  270.0000      0.1470
  271.0000      0.1451
  272.0000      0.1443
  273.0000      0.1427
  274.0000      0.1407
  275.0000      0.1389
  276.0000      0.1376
  277.0000      0.1362
  278.0000      0.1345
  279.0000      0.1325
  280.0000      0.1314
  281.0000      0.1294
  282.0000      0.1272
  283.0000      0.1259
  284.0000      0.1246
  285.0000      0.1225
  286.0000      0.1209
  287.0000      0.1190
  288.0000      0.1176
  289.0000      0.1161
  290.0000      0.1143
  291.0000      0.1123
  292.0000      0.1108
  293.0000      0.1095
  294.0000      0.1083
  295.0000      0.1059
  296.0000      0.1047
  297.0000      0.1037
  298.0000      0.1020
  299.0000      0.1011
  300.0000      0.0997
  301.0000      0.0982
  302.0000      0.0969
  303.0000      0.0962
  304.0000      0.0946
  305.0000      0.0936
  306.0000      0.0925
  307.0000      0.0914
  308.0000      0.0904
  309.0000      0.0891
  310.0000      0.0879
  311.0000      0.0864
  312.0000      0.0857
  313.0000      0.0851
  314.0000      0.0838
  315.0000      0.0824
  316.0000      0.0810
  317.0000      0.0803
  318.0000      0.0796
  319.0000      0.0788
  320.0000      0.0778
  321.0000      0.0766
  322.0000      0.0760
  323.0000      0.0749
  324.0000      0.0741
  325.0000      0.0739
  326.0000      0.0725
  327.0000      0.0719
  328.0000      0.0712
  329.0000      0.0705
  330.0000      0.0700
  331.0000      0.0692
  332.0000      0.0689
  333.0000      0.0678
  334.0000      0.0673
  335.0000      0.0671
  336.0000      0.0660
  337.0000      0.0654
  338.0000      0.0645
  339.0000      0.0642
  340.0000      0.0637
  341.0000      0.0629
  342.0000      0.0626
  343.0000      0.0618
  344.0000      0.0616
  345.0000      0.0613
  346.0000      0.0605
  347.0000      0.0598
  348.0000      0.0593
  349.0000      0.0589
  350.0000      0.0583
  351.0000      0.0582
  352.0000      0.0573
  353.0000      0.0569
  354.0000      0.0569
  355.0000      0.0562
  356.0000      0.0562
  357.0000      0.0543
  358.0000      0.0541
  359.0000      0.0539
  360.0000      0.0551
  361.0000      0.0552
  362.0000      0.0538
  363.0000      0.0539
  364.0000      0.0526
  365.0000      0.0525
  366.0000      0.0523
  367.0000      0.0525
  368.0000      0.0517
  369.0000      0.0522
  370.0000      0.0504
  371.0000      0.0512
  372.0000      0.0513
  373.0000      0.0501
  374.0000      0.0506
  375.0000      0.0501
  376.0000      0.0499
  377.0000      0.0490
  378.0000      0.0492
  379.0000      0.0486
  380.0000      0.0486
  381.0000      0.0482
  382.0000      0.0471
  383.0000      0.0467
  384.0000      0.0477
  385.0000      0.0472
  386.0000      0.0463
  387.0000      0.0463
  388.0000      0.0455
  389.0000      0.0452
  390.0000      0.0454
  391.0000      0.0453
  392.0000      0.0443
  393.0000      0.0440
  394.0000      0.0439
  395.0000      0.0435
  396.0000      0.0432
  397.0000      0.0430
  398.0000      0.0426
  399.0000      0.0421
  400.0000      0.0419
  401.0000      0.0413
  402.0000      0.0411
  403.0000      0.0409
  404.0000      0.0407
  405.0000      0.0406
  406.0000      0.0400
  407.0000      0.0397
  408.0000      0.0398
  409.0000      0.0396
  410.0000      0.0392
  411.0000      0.0389
  412.0000      0.0387
  413.0000      0.0386
  414.0000      0.0384
  415.0000      0.0380
  416.0000      0.0365
  417.0000      0.0362
  418.0000      0.0361
  419.0000      0.0358
  420.0000      0.0357
  421.0000      0.0354
  422.0000      0.0352
  423.0000      0.0350
  424.0000      0.0347
  425.0000      0.0346
  426.0000      0.0343
  427.0000      0.0341
  428.0000      0.0339
  429.0000      0.0338
  430.0000      0.0336
  431.0000      0.0335
  432.0000      0.0333
  433.0000      0.0331
  434.0000      0.0331
  435.0000      0.0329
  436.0000      0.0327
  437.0000      0.0326
  438.0000      0.0324
  439.0000      0.0324
  440.0000      0.0322
  441.0000      0.0321
  442.0000      0.0320
  443.0000      0.0318
  444.0000      0.0317
  445.0000      0.0315
  446.0000      0.0314
  447.0000      0.0312
  448.0000      0.0311
  449.0000      0.0311
  450.0000      0.0309
  451.0000      0.0308
  452.0000      0.0308
  453.0000      0.0307
  454.0000      0.0307
  455.0000      0.0307
  456.0000      0.0305
  457.0000      0.0305
  458.0000      0.0304
  459.0000      0.0303
  460.0000      0.0302
  461.0000      0.0302
  462.0000      0.0300
  463.0000      0.0300
  464.0000      0.0300
  465.0000      0.0299
  466.0000      0.0299
  467.0000      0.0298
  468.0000      0.0297
  469.0000      0.0296
  470.0000      0.0295
  471.0000      0.0294
  472.0000      0.0292
  473.0000      0.0291
  474.0000      0.0291
  475.0000      0.0290
  476.0000      0.0289
  477.0000      0.0288
  478.0000      0.0287
  479.0000      0.0287
  480.0000      0.0287
  481.0000      0.0286
  482.0000      0.0286
  483.0000      0.0285
  484.0000      0.0285
  485.0000      0.0284
  486.0000      0.0283
  487.0000      0.0283
  488.0000      0.0282
  489.0000      0.0281
  490.0000      0.0280
  491.0000      0.0279
  492.0000      0.0279
  493.0000      0.0278
  494.0000      0.0278
  495.0000      0.0278
  496.0000      0.0277
  497.0000      0.0277
  498.0000      0.0277
  499.0000      0.0276
  500.0000      0.0276
  501.0000      0.0275
  502.0000      0.0275
  503.0000      0.0274
  504.0000      0.0273
  505.0000      0.0272
  506.0000      0.0270
  507.0000      0.0269
  508.0000      0.0268
  509.0000      0.0267
  510.0000      0.0267
  511.0000      0.0266
  512.0000      0.0265
  513.0000      0.0263
  514.0000      0.0262
  515.0000      0.0259
  516.0000      0.0257
  517.0000      0.0255
  518.0000      0.0254
  519.0000      0.0253
  520.0000      0.0252
  521.0000      0.0251
  522.0000      0.0250
  523.0000      0.0249
  524.0000      0.0248
  525.0000      0.0248
  526.0000      0.0246
  527.0000      0.0245
  528.0000      0.0244
  529.0000      0.0243
  530.0000      0.0243
  531.0000      0.0242
  532.0000      0.0241
  533.0000      0.0241
  534.0000      0.0240
  535.0000      0.0240
  536.0000      0.0240
  537.0000      0.0240
  538.0000      0.0240
  539.0000      0.0239
  540.0000      0.0239
  541.0000      0.0238
  542.0000      0.0238
  543.0000      0.0237
  544.0000      0.0237
  545.0000      0.0237
  546.0000      0.0237
  547.0000      0.0237
  548.0000      0.0237
  549.0000      0.0236
  550.0000      0.0236
  551.0000      0.0235
  552.0000      0.0234
  553.0000      0.0234
  554.0000      0.0234
  555.0000      0.0234
  556.0000      0.0233
  557.0000      0.0242
  558.0000      0.0243
  559.0000      0.0242
  560.0000      0.0243
  561.0000      0.0243
  562.0000      0.0243
  563.0000      0.0243
  564.0000      0.0243
  565.0000      0.0243
  566.0000      0.0243
  567.0000      0.0243
  568.0000      0.0243
  569.0000      0.0243
  570.0000      0.0243
  571.0000      0.0244
  572.0000      0.0243
  573.0000      0.0243
  574.0000      0.0242
  575.0000      0.0241
  576.0000      0.0239
  577.0000      0.0238
  578.0000      0.0237
  579.0000      0.0236
  580.0000      0.0235
  581.0000      0.0233
  582.0000      0.0232
  583.0000      0.0231
  584.0000      0.0230
  585.0000      0.0230
  586.0000      0.0229
  587.0000      0.0229
  588.0000      0.0228
  589.0000      0.0227
  590.0000      0.0226
  591.0000      0.0225
  592.0000      0.0223
  593.0000      0.0222
  594.0000      0.0221
  595.0000      0.0221
  596.0000      0.0220
  597.0000      0.0219
  598.0000      0.0219
  599.0000      0.0219
  600.0000      0.0218
  601.0000      0.0218
  602.0000      0.0217
  603.0000      0.0216
  604.0000      0.0215
  605.0000      0.0214
  606.0000      0.0214
  607.0000      0.0213
  608.0000      0.0212
  609.0000      0.0210
  610.0000      0.0210
  611.0000      0.0209
  612.0000      0.0209
  613.0000      0.0208
  614.0000      0.0207
  615.0000      0.0207
  616.0000      0.0207
  617.0000      0.0206
  618.0000      0.0206
  619.0000      0.0205
  620.0000      0.0205
  621.0000      0.0204
  622.0000      0.0204
  623.0000      0.0204
  624.0000      0.0203
  625.0000      0.0202
  626.0000      0.0202
  627.0000      0.0202
  628.0000      0.0202
  629.0000      0.0203
  630.0000      0.0203
  631.0000      0.0203
  632.0000      0.0202
  633.0000      0.0202
  634.0000      0.0202
  635.0000      0.0202
  636.0000      0.0202
  637.0000      0.0202
  638.0000      0.0201
  639.0000      0.0202
  640.0000      0.0202
  641.0000      0.0202
  642.0000      0.0203
  643.0000      0.0204
  644.0000      0.0204
  645.0000      0.0205
  646.0000      0.0205
  647.0000      0.0205
  648.0000      0.0204
  649.0000      0.0204
  650.0000      0.0204
  651.0000      0.0204
  652.0000      0.0204
  653.0000      0.0204
  654.0000      0.0205
  655.0000      0.0205
  656.0000      0.0205
  657.0000      0.0206
  658.0000      0.0207
  659.0000      0.0207
  660.0000      0.0207
  661.0000      0.0207
  662.0000      0.0207
  663.0000      0.0207
  664.0000      0.0207
  665.0000      0.0207
  666.0000      0.0207
  667.0000      0.0207
  668.0000      0.0207
  669.0000      0.0208
  670.0000      0.0208
  671.0000      0.0208
  672.0000      0.0209
  673.0000      0.0209
  674.0000      0.0208
  675.0000      0.0209
  676.0000      0.0208
  677.0000      0.0207
  678.0000      0.0206
  679.0000      0.0206
  680.0000      0.0206
  681.0000      0.0205
  682.0000      0.0205
  683.0000      0.0204
  684.0000      0.0204
  685.0000      0.0204
  686.0000      0.0205
  687.0000      0.0205
  688.0000      0.0204
  689.0000      0.0204
  690.0000      0.0204
  691.0000      0.0203
  692.0000      0.0203
  693.0000      0.0203
  694.0000      0.0204
  695.0000      0.0205
  696.0000      0.0205
  697.0000      0.0204
  698.0000      0.0204
  699.0000      0.0204
  700.0000      0.0202
  701.0000      0.0200
  702.0000      0.0199
  703.0000      0.0199
  704.0000      0.0198
  705.0000      0.0197
  706.0000      0.0197
  707.0000      0.0196
  708.0000      0.0194
  709.0000      0.0192
  710.0000      0.0190
  711.0000      0.0189
  712.0000      0.0188
  713.0000      0.0188
  714.0000      0.0187
  715.0000      0.0187
  716.0000      0.0186
  717.0000      0.0184
  718.0000      0.0183
  719.0000      0.0183
  720.0000      0.0183
  721.0000      0.0182
  722.0000      0.0181
  723.0000      0.0180
  724.0000      0.0180
  725.0000      0.0179
  726.0000      0.0178
  727.0000      0.0177
  728.0000      0.0177
  729.0000      0.0175
  730.0000      0.0174
  731.0000      0.0174
  732.0000      0.0172
  733.0000      0.0172
  734.0000      0.0171
  735.0000      0.0171
  736.0000      0.0172
  737.0000      0.0171
  738.0000      0.0171
  739.0000      0.0171
  740.0000      0.0171
  741.0000      0.0171
  742.0000      0.0170
  743.0000      0.0170
  744.0000      0.0169
  745.0000      0.0169
  746.0000      0.0168
  747.0000      0.0168
  748.0000      0.0168
  749.0000      0.0168
  750.0000      0.0168
  751.0000      0.0168
  752.0000      0.0169
  753.0000      0.0168
  754.0000      0.0168
  755.0000      0.0168
  756.0000      0.0167
  757.0000      0.0168
  758.0000      0.0168
  759.0000      0.0167
  760.0000      0.0167
  761.0000      0.0167
  762.0000      0.0167
  763.0000      0.0167
  764.0000      0.0166
  765.0000      0.0166
  766.0000      0.0165
  767.0000      0.0165
  768.0000      0.0164
  769.0000      0.0164
  770.0000      0.0163
  771.0000      0.0163
  772.0000      0.0162
  773.0000      0.0162
  774.0000      0.0162
  775.0000      0.0162
  776.0000      0.0162
  777.0000      0.0161
  778.0000      0.0161
  779.0000      0.0161
  780.0000      0.0160
  781.0000      0.0161
  782.0000      0.0160
  783.0000      0.0160
  784.0000      0.0160
  785.0000      0.0159
  786.0000      0.0160
  787.0000      0.0160
  788.0000      0.0159
  789.0000      0.0159
  790.0000      0.0160
  791.0000      0.0160
  792.0000      0.0159
  793.0000      0.0160
  794.0000      0.0160
  795.0000      0.0160
  796.0000      0.0159
  797.0000      0.0160
  798.0000      0.0160
  799.0000      0.0159
  800.0000      0.0159
