Start Wavelength:    200.0000
End Wavelength:    800.0000
Read Mode:  ABS
Read Average:      0.1000
Nanometer Interval:      1.0000
Time:      0.0000

  200.0000      1.0581
  201.0000      0.9668
  202.0000      0.9231
  203.0000      0.8778
  204.0000      0.8313
  205.0000      0.7950
  206.0000      0.7633
  207.0000      0.7365
  208.0000      0.7077
  209.0000      0.6824
  210.0000      0.6602
  211.0000      0.6404
  212.0000      0.6205
  213.0000      0.6007
  214.0000      0.5843
  215.0000      0.5685
  216.0000      0.5539
  217.0000      0.5382
  218.0000      0.5239
  219.0000      0.5113
  220.0000      0.4991
  221.0000      0.4857
  222.0000      0.4745
  223.0000      0.4633
  224.0000      0.4530
  225.0000      0.4424
  226.0000      0.4334
  227.0000      0.4238
  228.0000      0.4157
  229.0000      0.4064
  230.0000      0.3988
  231.0000      0.3912
  232.0000      0.3834
  233.0000      0.3756
  234.0000      0.3691
  235.0000      0.3627
  236.0000      0.3572
  237.0000      0.3511
  238.0000      0.3459
  239.0000      0.3413
  240.0000      0.3371
  241.0000      0.3326
  242.0000      0.3281
  243.0000      0.3248
  244.0000      0.3211
  245.0000      0.3180
  246.0000      0.3152
  247.0000      0.3125
  248.0000      0.3094
  249.0000      0.3072
  250.0000      0.3050
  251.0000      0.3028
  252.0000      0.3003
  253.0000      0.2979
  254.0000      0.2958
  255.0000      0.2942
  256.0000      0.2920
  257.0000      0.2896
  258.0000      0.2879
  259.0000      0.2851
  260.0000      0.2831
  261.0000      0.2809
  262.0000      0.2784
  263.0000      0.2757
  264.0000      0.2737
  265.0000      0.2708
  266.0000      0.2692
  267.0000      0.2667
  268.0000      0.2647
  269.0000      0.2622
  270.0000      0.2592
  271.0000      0.2578
  272.0000      0.2543
  273.0000      0.2512
  274.0000      0.2479
  275.0000      0.2452
  276.0000      0.2414
  277.0000      0.2385
  278.0000      0.2342
  279.0000      0.2313
  280.0000      0.2281
  281.0000      0.2244
  282.0000      0.2208
  283.0000      0.2181
  284.0000      0.2140
  285.0000      0.2100
  286.0000      0.2073
  287.0000      0.2030
  288.0000      0.1994
  289.0000      0.1960
  290.0000      0.1917
  291.0000      0.1882
  292.0000      0.1859
  293.0000      0.1818
  294.0000      0.1788
  295.0000      0.1754
  296.0000      0.1727
  297.0000      0.1689
  298.0000      0.1662
  299.0000      0.1630
  300.0000      0.1607
  301.0000      0.1579
  302.0000      0.1555
  303.0000      0.1532
  304.0000      0.1502
  305.0000      0.1482
  306.0000      0.1462
  307.0000      0.1444
  308.0000      0.1417
  309.0000      0.1397
  310.0000      0.1377
  311.0000      0.1360
  312.0000      0.1340
  313.0000      0.1327
  314.0000      0.1300
  315.0000      0.1287
  316.0000      0.1269
  317.0000      0.1249
  318.0000      0.1245
  319.0000      0.1217
  320.0000      0.1206
  321.0000      0.1201
  322.0000      0.1197
  323.0000      0.1178
  324.0000      0.1170
  325.0000      0.1158
  326.0000      0.1151
  327.0000      0.1135
  328.0000      0.1123
  329.0000      0.1114
  330.0000      0.1101
  331.0000      0.1082
  332.0000      0.1070
  333.0000      0.1058
  334.0000      0.1043
  335.0000      0.1037
  336.0000      0.1018
  337.0000      0.1007
  338.0000      0.0993
  339.0000      0.0989
  340.0000      0.0973
  341.0000      0.0966
  342.0000      0.0953
  343.0000      0.0942
  344.0000      0.0933
  345.0000      0.0921
  346.0000      0.0914
  347.0000      0.0905
  348.0000      0.0896
  349.0000      0.0883
  350.0000      0.0876
  351.0000      0.0863
  352.0000      0.0857
  353.0000      0.0852
  354.0000      0.0840
  355.0000      0.0830
  356.0000      0.0828
  357.0000      0.0802
  358.0000      0.0789
  359.0000      0.0779
  360.0000      0.0764
  361.0000      0.0770
  362.0000      0.0749
  363.0000      0.0752
  364.0000      0.0743
  365.0000      0.0723
  366.0000      0.0724
  367.0000      0.0716
  368.0000      0.0713
  369.0000      0.0695
  370.0000      0.0701
  371.0000      0.0688
  372.0000      0.0674
  373.0000      0.0674
  374.0000      0.0668
  375.0000      0.0661
  376.0000      0.0660
  377.0000      0.0651
  378.0000      0.0638
  379.0000      0.0642
  380.0000      0.0626
  381.0000      0.0628
  382.0000      0.0621
  383.0000      0.0611
  384.0000      0.0605
  385.0000      0.0610
  386.0000      0.0603
  387.0000      0.0594
  388.0000      0.0592
  389.0000      0.0582
  390.0000      0.0575
  391.0000      0.0570
  392.0000      0.0570
  393.0000      0.0560
  394.0000      0.0562
  395.0000      0.0549
  396.0000      0.0551
  397.0000      0.0545
  398.0000      0.0541
  399.0000      0.0537
  400.0000      0.0530
  401.0000      0.0528
  402.0000      0.0518
  403.0000      0.0526
  404.0000      0.0517
  405.0000      0.0518
  406.0000      0.0510
  407.0000      0.0511
  408.0000      0.0503
  409.0000      0.0501
  410.0000      0.0498
  411.0000      0.0494
  412.0000      0.0494
  413.0000      0.0489
  414.0000      0.0486
  415.0000      0.0484
  416.0000      0.0462
  417.0000      0.0456
  418.0000      0.0451
  419.0000      0.0446
  420.0000      0.0442
  421.0000      0.0437
  422.0000      0.0433
  423.0000      0.0429
  424.0000      0.0424
  425.0000      0.0419
  426.0000      0.0414
  427.0000      0.0409
  428.0000      0.0403
  429.0000      0.0399
  430.0000      0.0393
  431.0000      0.0389
  432.0000      0.0385
  433.0000      0.0382
  434.0000      0.0379
  435.0000      0.0377
  436.0000      0.0375
  437.0000      0.0372
  438.0000      0.0370
  439.0000      0.0366
  440.0000      0.0363
  441.0000      0.0361
  442.0000      0.0360
  443.0000      0.0358
  444.0000      0.0356
  445.0000      0.0354
  446.0000      0.0352
  447.0000      0.0351
  448.0000      0.0349
  449.0000      0.0347
  450.0000      0.0345
  451.0000      0.0343
  452.0000      0.0341
  453.0000      0.0339
  454.0000      0.0339
  455.0000      0.0338
  456.0000      0.0337
  457.0000      0.0338
  458.0000      0.0337
  459.0000      0.0336
  460.0000      0.0336
  461.0000      0.0337
  462.0000      0.0337
  463.0000      0.0339
  464.0000      0.0339
  465.0000      0.0339
  466.0000      0.0341
  467.0000      0.0341
  468.0000      0.0341
  469.0000      0.0342
  470.0000      0.0341
  471.0000      0.0341
  472.0000      0.0340
  473.0000      0.0339
  474.0000      0.0338
  475.0000      0.0337
  476.0000      0.0336
  477.0000      0.0336
  478.0000      0.0335
  479.0000      0.0334
  480.0000      0.0334
  481.0000      0.0333
  482.0000      0.0332
  483.0000      0.0331
  484.0000      0.0330
  485.0000      0.0329
  486.0000      0.0328
  487.0000      0.0327
  488.0000      0.0325
  489.0000      0.0324
  490.0000      0.0322
  491.0000      0.0321
  492.0000      0.0320
  493.0000      0.0320
  494.0000      0.0319
  495.0000      0.0319
  496.0000      0.0319
  497.0000      0.0318
  498.0000      0.0318
  499.0000      0.0317
  500.0000      0.0317
  501.0000      0.0315
  502.0000      0.0315
  503.0000      0.0314
  504.0000      0.0313
  505.0000      0.0312
  506.0000      0.0312
  507.0000      0.0312
  508.0000      0.0312
  509.0000      0.0313
  510.0000      0.0313
  511.0000      0.0313
  512.0000      0.0313
  513.0000      0.0313
  514.0000      0.0313
  515.0000      0.0314
  516.0000      0.0315
  517.0000      0.0315
  518.0000      0.0314
  519.0000      0.0314
  520.0000      0.0314
  521.0000      0.0314
  522.0000      0.0313
  523.0000      0.0313
  524.0000      0.0312
  525.0000      0.0311
  526.0000      0.0311
  527.0000      0.0309
  528.0000      0.0309
  529.0000      0.0307
  530.0000      0.0306
  531.0000      0.0305
  532.0000      0.0303
  533.0000      0.0302
  534.0000      0.0301
  535.0000      0.0301
  536.0000      0.0301
  537.0000      0.0302
  538.0000      0.0303
  539.0000      0.0304
  540.0000      0.0304
  541.0000      0.0303
  542.0000      0.0302
  543.0000      0.0301
  544.0000      0.0301
  545.0000      0.0301
  546.0000      0.0301
  547.0000      0.0302
  548.0000      0.0304
  549.0000      0.0305
  550.0000      0.0306
  551.0000      0.0306
  552.0000      0.0306
  553.0000      0.0307
  554.0000      0.0307
  555.0000      0.0308
  556.0000      0.0309
  557.0000      0.0309
  558.0000      0.0307
  559.0000      0.0306
  560.0000      0.0303
  561.0000      0.0300
  562.0000      0.0298
  563.0000      0.0296
  564.0000      0.0294
  565.0000      0.0292
  566.0000      0.0290
  567.0000      0.0288
  568.0000      0.0287
  569.0000      0.0284
  570.0000      0.0282
  571.0000      0.0280
  572.0000      0.0277
  573.0000      0.0275
  574.0000      0.0272
  575.0000      0.0270
  576.0000      0.0268
  577.0000      0.0266
  578.0000      0.0263
  579.0000      0.0261
  580.0000      0.0259
  581.0000      0.0256
  582.0000      0.0253
  583.0000      0.0251
  584.0000      0.0250
  585.0000      0.0249
  586.0000      0.0250
  587.0000      0.0251
  588.0000      0.0252
  589.0000      0.0254
  590.0000      0.0256
  591.0000      0.0258
  592.0000      0.0259
  593.0000      0.0258
  594.0000      0.0258
  595.0000      0.0258
  596.0000      0.0257
  597.0000      0.0256
  598.0000      0.0254
  599.0000      0.0252
  600.0000      0.0252
  601.0000      0.0251
  602.0000      0.0250
  603.0000      0.0249
  604.0000      0.0249
  605.0000      0.0248
  606.0000      0.0248
  607.0000      0.0248
  608.0000      0.0248
  609.0000      0.0249
  610.0000      0.0249
  611.0000      0.0248
  612.0000      0.0249
  613.0000      0.0249
  614.0000      0.0248
  615.0000      0.0247
  616.0000      0.0247
  617.0000      0.0247
  618.0000      0.0248
  619.0000      0.0249
  620.0000      0.0250
  621.0000      0.0252
  622.0000      0.0253
  623.0000      0.0255
  624.0000      0.0256
  625.0000      0.0257
  626.0000      0.0259
  627.0000      0.0259
  628.0000      0.0260
  629.0000      0.0260
  630.0000      0.0260
  631.0000      0.0259
  632.0000      0.0257
  633.0000      0.0256
  634.0000      0.0255
  635.0000      0.0252
  636.0000      0.0251
  637.0000      0.0250
  638.0000      0.0250
  639.0000      0.0249
  640.0000      0.0246
  641.0000      0.0244
  642.0000      0.0242
  643.0000      0.0241
  644.0000      0.0239
  645.0000      0.0239
  646.0000      0.0238
  647.0000      0.0238
  648.0000      0.0237
  649.0000      0.0236
  650.0000      0.0234
  651.0000      0.0235
  652.0000      0.0235
  653.0000      0.0235
  654.0000      0.0235
  655.0000      0.0234
  656.0000      0.0235
  657.0000      0.0235
  658.0000      0.0236
  659.0000      0.0236
  660.0000      0.0238
  661.0000      0.0238
  662.0000      0.0240
  663.0000      0.0240
  664.0000      0.0242
  665.0000      0.0243
  666.0000      0.0245
  667.0000      0.0247
  668.0000      0.0248
  669.0000      0.0248
  670.0000      0.0248
  671.0000      0.0248
  672.0000      0.0247
  673.0000      0.0245
  674.0000      0.0243
  675.0000      0.0241
  676.0000      0.0239
  677.0000      0.0236
  678.0000      0.0232
  679.0000      0.0229
  680.0000      0.0226
  681.0000      0.0222
  682.0000      0.0219
  683.0000      0.0216
  684.0000      0.0213
  685.0000      0.0211
  686.0000      0.0209
  687.0000      0.0206
  688.0000      0.0204
  689.0000      0.0201
  690.0000      0.0200
  691.0000      0.0199
  692.0000      0.0199
  693.0000      0.0198
  694.0000      0.0197
  695.0000      0.0196
  696.0000      0.0196
  697.0000      0.0195
  698.0000      0.0194
  699.0000      0.0194
  700.0000      0.0193
  701.0000      0.0193
  702.0000      0.0193
  703.0000      0.0192
  704.0000      0.0193
  705.0000      0.0192
  706.0000      0.0192
  707.0000      0.0193
  708.0000      0.0194
  709.0000      0.0194
  710.0000      0.0194
  711.0000      0.0195
  712.0000      0.0196
  713.0000      0.0197
  714.0000      0.0197
  715.0000      0.0196
  716.0000      0.0196
  717.0000      0.0197
  718.0000      0.0198
  719.0000      0.0198
  720.0000      0.0198
  721.0000      0.0197
  722.0000      0.0197
  723.0000      0.0197
  724.0000      0.0197
  725.0000      0.0198
  726.0000      0.0197
  727.0000      0.0197
  728.0000      0.0196
  729.0000      0.0196
  730.0000      0.0196
  731.0000      0.0195
  732.0000      0.0195
  733.0000      0.0195
  734.0000      0.0194
  735.0000      0.0194
  736.0000      0.0197
  737.0000      0.0195
  738.0000      0.0194
  739.0000      0.0193
  740.0000      0.0192
  741.0000      0.0191
  742.0000      0.0191
  743.0000      0.0191
  744.0000      0.0190
  745.0000      0.0190
  746.0000      0.0190
  747.0000      0.0190
  748.0000      0.0189
  749.0000      0.0189
  750.0000      0.0189
  751.0000      0.0187
  752.0000      0.0186
  753.0000      0.0185
  754.0000      0.0184
  755.0000      0.0185
  756.0000      0.0185
  757.0000      0.0186
  758.0000      0.0186
  759.0000      0.0187
  760.0000      0.0187
  761.0000      0.0187
  762.0000      0.0188
  763.0000      0.0187
  764.0000      0.0187
  765.0000      0.0187
  766.0000      0.0186
  767.0000      0.0186
  768.0000      0.0185
  769.0000      0.0184
  770.0000      0.0184
  771.0000      0.0183
  772.0000      0.0183
  773.0000      0.0181
  774.0000      0.0180
  775.0000      0.0179
  776.0000      0.0178
  777.0000      0.0177
  778.0000      0.0175
  779.0000      0.0175
  780.0000      0.0174
  781.0000      0.0173
  782.0000      0.0173
  783.0000      0.0173
  784.0000      0.0172
  785.0000      0.0172
  786.0000      0.0172
  787.0000      0.0172
  788.0000      0.0171
  789.0000      0.0171
  790.0000      0.0171
  791.0000      0.0171
  792.0000      0.0170
  793.0000      0.0169
  794.0000      0.0170
  795.0000      0.0170
  796.0000      0.0170
  797.0000      0.0171
  798.0000      0.0172
  799.0000      0.0172
  800.0000      0.0172
