Start Wavelength:    200.0000
End Wavelength:    800.0000
Read Mode:  ABS
Read Average:      0.1000
Nanometer Interval:      1.0000
Time:      0.0000

  200.0000      2.4283
  201.0000      2.8748
  202.0000      2.5715
  203.0000      2.5039
  204.0000      2.5762
  205.0000      2.4943
  206.0000      2.5783
  207.0000      2.3676
  208.0000      2.5079
  209.0000      2.3586
  210.0000      2.2784
  211.0000      2.1619
  212.0000      2.0909
  213.0000      1.9622
  214.0000      1.8754
  215.0000      1.7351
  216.0000      1.6164
  217.0000      1.4765
  218.0000      1.3590
  219.0000      1.2443
  220.0000      1.1285
  221.0000      1.0131
  222.0000      0.9137
  223.0000      0.8201
  224.0000      0.7347
  225.0000      0.6509
  226.0000      0.5797
  227.0000      0.5180
  228.0000      0.4633
  229.0000      0.4098
  230.0000      0.3677
  231.0000      0.3311
  232.0000      0.3002
  233.0000      0.2711
  234.0000      0.2484
  235.0000      0.2292
  236.0000      0.2126
  237.0000      0.1980
  238.0000      0.1866
  239.0000      0.1769
  240.0000      0.1692
  241.0000      0.1619
  242.0000      0.1566
  243.0000      0.1522
  244.0000      0.1484
  245.0000      0.1448
  246.0000      0.1422
  247.0000      0.1399
  248.0000      0.1378
  249.0000      0.1358
  250.0000      0.1347
  251.0000      0.1335
  252.0000      0.1321
  253.0000      0.1312
  254.0000      0.1301
  255.0000      0.1294
  256.0000      0.1286
  257.0000      0.1274
  258.0000      0.1269
  259.0000      0.1260
  260.0000      0.1253
  261.0000      0.1248
  262.0000      0.1240
  263.0000      0.1232
  264.0000      0.1224
  265.0000      0.1218
  266.0000      0.1205
  267.0000      0.1199
  268.0000      0.1188
  269.0000      0.1183
  270.0000      0.1175
  271.0000      0.1162
  272.0000      0.1153
  273.0000      0.1143
  274.0000      0.1139
  275.0000      0.1129
  276.0000      0.1119
  277.0000      0.1109
  278.0000      0.1101
  279.0000      0.1088
  280.0000      0.1086
  281.0000      0.1071
  282.0000      0.1061
  283.0000      0.1051
  284.0000      0.1041
  285.0000      0.1028
  286.0000      0.1016
  287.0000      0.1002
  288.0000      0.0991
  289.0000      0.0983
  290.0000      0.0976
  291.0000      0.0958
  292.0000      0.0944
  293.0000      0.0938
  294.0000      0.0926
  295.0000      0.0914
  296.0000      0.0905
  297.0000      0.0892
  298.0000      0.0878
  299.0000      0.0873
  300.0000      0.0863
  301.0000      0.0847
  302.0000      0.0837
  303.0000      0.0836
  304.0000      0.0818
  305.0000      0.0809
  306.0000      0.0803
  307.0000      0.0792
  308.0000      0.0789
  309.0000      0.0774
  310.0000      0.0772
  311.0000      0.0761
  312.0000      0.0758
  313.0000      0.0741
  314.0000      0.0736
  315.0000      0.0729
  316.0000      0.0727
  317.0000      0.0717
  318.0000      0.0703
  319.0000      0.0693
  320.0000      0.0685
  321.0000      0.0688
  322.0000      0.0673
  323.0000      0.0666
  324.0000      0.0660
  325.0000      0.0658
  326.0000      0.0650
  327.0000      0.0639
  328.0000      0.0635
  329.0000      0.0624
  330.0000      0.0628
  331.0000      0.0617
  332.0000      0.0611
  333.0000      0.0597
  334.0000      0.0597
  335.0000      0.0592
  336.0000      0.0588
  337.0000      0.0578
  338.0000      0.0574
  339.0000      0.0569
  340.0000      0.0572
  341.0000      0.0562
  342.0000      0.0554
  343.0000      0.0552
  344.0000      0.0549
  345.0000      0.0546
  346.0000      0.0542
  347.0000      0.0538
  348.0000      0.0533
  349.0000      0.0532
  350.0000      0.0523
  351.0000      0.0527
  352.0000      0.0516
  353.0000      0.0519
  354.0000      0.0516
  355.0000      0.0509
  356.0000      0.0503
  357.0000      0.0510
  358.0000      0.0496
  359.0000      0.0513
  360.0000      0.0506
  361.0000      0.0511
  362.0000      0.0472
  363.0000      0.0487
  364.0000      0.0495
  365.0000      0.0498
  366.0000      0.0482
  367.0000      0.0491
  368.0000      0.0479
  369.0000      0.0472
  370.0000      0.0473
  371.0000      0.0464
  372.0000      0.0474
  373.0000      0.0464
  374.0000      0.0458
  375.0000      0.0453
  376.0000      0.0466
  377.0000      0.0462
  378.0000      0.0464
  379.0000      0.0440
  380.0000      0.0447
  381.0000      0.0448
  382.0000      0.0440
  383.0000      0.0437
  384.0000      0.0432
  385.0000      0.0437
  386.0000      0.0430
  387.0000      0.0424
  388.0000      0.0419
  389.0000      0.0424
  390.0000      0.0420
  391.0000      0.0417
  392.0000      0.0412
  393.0000      0.0415
  394.0000      0.0413
  395.0000      0.0408
  396.0000      0.0410
  397.0000      0.0405
  398.0000      0.0400
  399.0000      0.0397
  400.0000      0.0396
  401.0000      0.0389
  402.0000      0.0391
  403.0000      0.0389
  404.0000      0.0387
  405.0000      0.0384
  406.0000      0.0383
  407.0000      0.0383
  408.0000      0.0378
  409.0000      0.0376
  410.0000      0.0371
  411.0000      0.0374
  412.0000      0.0369
  413.0000      0.0366
  414.0000      0.0363
  415.0000      0.0369
  416.0000      0.0368
  417.0000      0.0367
  418.0000      0.0365
  419.0000      0.0362
  420.0000      0.0362
  421.0000      0.0361
  422.0000      0.0360
  423.0000      0.0357
  424.0000      0.0354
  425.0000      0.0353
  426.0000      0.0354
  427.0000      0.0353
  428.0000      0.0352
  429.0000      0.0349
  430.0000      0.0348
  431.0000      0.0346
  432.0000      0.0346
  433.0000      0.0344
  434.0000      0.0342
  435.0000      0.0338
  436.0000      0.0335
  437.0000      0.0332
  438.0000      0.0330
  439.0000      0.0327
  440.0000      0.0324
  441.0000      0.0319
  442.0000      0.0315
  443.0000      0.0312
  444.0000      0.0309
  445.0000      0.0307
  446.0000      0.0304
  447.0000      0.0302
  448.0000      0.0300
  449.0000      0.0298
  450.0000      0.0296
  451.0000      0.0294
  452.0000      0.0292
  453.0000      0.0290
  454.0000      0.0288
  455.0000      0.0285
  456.0000      0.0283
  457.0000      0.0281
  458.0000      0.0280
  459.0000      0.0279
  460.0000      0.0276
  461.0000      0.0275
  462.0000      0.0274
  463.0000      0.0274
  464.0000      0.0274
  465.0000      0.0273
  466.0000      0.0273
  467.0000      0.0273
  468.0000      0.0273
  469.0000      0.0273
  470.0000      0.0273
  471.0000      0.0273
  472.0000      0.0272
  473.0000      0.0271
  474.0000      0.0270
  475.0000      0.0269
  476.0000      0.0267
  477.0000      0.0267
  478.0000      0.0265
  479.0000      0.0265
  480.0000      0.0264
  481.0000      0.0263
  482.0000      0.0263
  483.0000      0.0262
  484.0000      0.0261
  485.0000      0.0261
  486.0000      0.0261
  487.0000      0.0261
  488.0000      0.0260
  489.0000      0.0260
  490.0000      0.0259
  491.0000      0.0258
  492.0000      0.0257
  493.0000      0.0257
  494.0000      0.0256
  495.0000      0.0255
  496.0000      0.0254
  497.0000      0.0253
  498.0000      0.0253
  499.0000      0.0252
  500.0000      0.0250
  501.0000      0.0249
  502.0000      0.0249
  503.0000      0.0248
  504.0000      0.0247
  505.0000      0.0246
  506.0000      0.0245
  507.0000      0.0244
  508.0000      0.0243
  509.0000      0.0242
  510.0000      0.0241
  511.0000      0.0241
  512.0000      0.0239
  513.0000      0.0238
  514.0000      0.0238
  515.0000      0.0237
  516.0000      0.0236
  517.0000      0.0235
  518.0000      0.0234
  519.0000      0.0233
  520.0000      0.0232
  521.0000      0.0231
  522.0000      0.0230
  523.0000      0.0229
  524.0000      0.0227
  525.0000      0.0226
  526.0000      0.0225
  527.0000      0.0224
  528.0000      0.0223
  529.0000      0.0222
  530.0000      0.0221
  531.0000      0.0220
  532.0000      0.0219
  533.0000      0.0218
  534.0000      0.0218
  535.0000      0.0217
  536.0000      0.0217
  537.0000      0.0216
  538.0000      0.0214
  539.0000      0.0214
  540.0000      0.0213
  541.0000      0.0212
  542.0000      0.0212
  543.0000      0.0212
  544.0000      0.0212
  545.0000      0.0212
  546.0000      0.0211
  547.0000      0.0211
  548.0000      0.0211
  549.0000      0.0210
  550.0000      0.0210
  551.0000      0.0210
  552.0000      0.0209
  553.0000      0.0209
  554.0000      0.0208
  555.0000      0.0208
  556.0000      0.0208
  557.0000      0.0224
  558.0000      0.0222
  559.0000      0.0220
  560.0000      0.0219
  561.0000      0.0218
  562.0000      0.0217
  563.0000      0.0216
  564.0000      0.0215
  565.0000      0.0214
  566.0000      0.0212
  567.0000      0.0211
  568.0000      0.0211
  569.0000      0.0209
  570.0000      0.0208
  571.0000      0.0207
  572.0000      0.0206
  573.0000      0.0205
  574.0000      0.0205
  575.0000      0.0204
  576.0000      0.0204
  577.0000      0.0203
  578.0000      0.0201
  579.0000      0.0198
  580.0000      0.0195
  581.0000      0.0193
  582.0000      0.0192
  583.0000      0.0192
  584.0000      0.0191
  585.0000      0.0191
  586.0000      0.0190
  587.0000      0.0189
  588.0000      0.0189
  589.0000      0.0187
  590.0000      0.0187
  591.0000      0.0185
  592.0000      0.0184
  593.0000      0.0183
  594.0000      0.0182
  595.0000      0.0182
  596.0000      0.0181
  597.0000      0.0181
  598.0000      0.0180
  599.0000      0.0181
  600.0000      0.0181
  601.0000      0.0181
  602.0000      0.0181
  603.0000      0.0181
  604.0000      0.0182
  605.0000      0.0182
  606.0000      0.0182
  607.0000      0.0182
  608.0000      0.0182
  609.0000      0.0182
  610.0000      0.0182
  611.0000      0.0181
  612.0000      0.0181
  613.0000      0.0181
  614.0000      0.0180
  615.0000      0.0180
  616.0000      0.0179
  617.0000      0.0178
  618.0000      0.0177
  619.0000      0.0176
  620.0000      0.0176
  621.0000      0.0175
  622.0000      0.0175
  623.0000      0.0175
  624.0000      0.0175
  625.0000      0.0174
  626.0000      0.0175
  627.0000      0.0175
  628.0000      0.0174
  629.0000      0.0174
  630.0000      0.0174
  631.0000      0.0174
  632.0000      0.0173
  633.0000      0.0173
  634.0000      0.0173
  635.0000      0.0173
  636.0000      0.0173
  637.0000      0.0173
  638.0000      0.0173
  639.0000      0.0172
  640.0000      0.0172
  641.0000      0.0172
  642.0000      0.0172
  643.0000      0.0172
  644.0000      0.0172
  645.0000      0.0172
  646.0000      0.0172
  647.0000      0.0172
  648.0000      0.0172
  649.0000      0.0172
  650.0000      0.0172
  651.0000      0.0173
  652.0000      0.0173
  653.0000      0.0172
  654.0000      0.0172
  655.0000      0.0173
  656.0000      0.0173
  657.0000      0.0172
  658.0000      0.0173
  659.0000      0.0173
  660.0000      0.0173
  661.0000      0.0173
  662.0000      0.0174
  663.0000      0.0174
  664.0000      0.0174
  665.0000      0.0174
  666.0000      0.0174
  667.0000      0.0174
  668.0000      0.0175
  669.0000      0.0175
  670.0000      0.0175
  671.0000      0.0175
  672.0000      0.0175
  673.0000      0.0175
  674.0000      0.0175
  675.0000      0.0176
  676.0000      0.0175
  677.0000      0.0176
  678.0000      0.0176
  679.0000      0.0176
  680.0000      0.0176
  681.0000      0.0176
  682.0000      0.0175
  683.0000      0.0175
  684.0000      0.0175
  685.0000      0.0175
  686.0000      0.0174
  687.0000      0.0174
  688.0000      0.0173
  689.0000      0.0173
  690.0000      0.0172
  691.0000      0.0172
  692.0000      0.0172
  693.0000      0.0171
  694.0000      0.0170
  695.0000      0.0170
  696.0000      0.0169
  697.0000      0.0168
  698.0000      0.0168
  699.0000      0.0167
  700.0000      0.0166
  701.0000      0.0166
  702.0000      0.0166
  703.0000      0.0166
  704.0000      0.0165
  705.0000      0.0165
  706.0000      0.0164
  707.0000      0.0165
  708.0000      0.0164
  709.0000      0.0164
  710.0000      0.0164
  711.0000      0.0164
  712.0000      0.0164
  713.0000      0.0164
  714.0000      0.0164
  715.0000      0.0164
  716.0000      0.0164
  717.0000      0.0164
  718.0000      0.0163
  719.0000      0.0163
  720.0000      0.0163
  721.0000      0.0162
  722.0000      0.0162
  723.0000      0.0162
  724.0000      0.0162
  725.0000      0.0162
  726.0000      0.0161
  727.0000      0.0161
  728.0000      0.0160
  729.0000      0.0160
  730.0000      0.0160
  731.0000      0.0159
  732.0000      0.0159
  733.0000      0.0159
  734.0000      0.0158
  735.0000      0.0158
  736.0000      0.0161
  737.0000      0.0161
  738.0000      0.0160
  739.0000      0.0159
  740.0000      0.0158
  741.0000      0.0158
  742.0000      0.0158
  743.0000      0.0157
  744.0000      0.0157
  745.0000      0.0156
  746.0000      0.0155
  747.0000      0.0155
  748.0000      0.0154
  749.0000      0.0154
  750.0000      0.0153
  751.0000      0.0153
  752.0000      0.0153
  753.0000      0.0153
  754.0000      0.0152
  755.0000      0.0152
  756.0000      0.0152
  757.0000      0.0152
  758.0000      0.0151
  759.0000      0.0151
  760.0000      0.0150
  761.0000      0.0150
  762.0000      0.0150
  763.0000      0.0149
  764.0000      0.0148
  765.0000      0.0149
  766.0000      0.0148
  767.0000      0.0148
  768.0000      0.0147
  769.0000      0.0147
  770.0000      0.0147
  771.0000      0.0147
  772.0000      0.0147
  773.0000      0.0146
  774.0000      0.0147
  775.0000      0.0146
  776.0000      0.0147
  777.0000      0.0146
  778.0000      0.0145
  779.0000      0.0145
  780.0000      0.0144
  781.0000      0.0144
  782.0000      0.0145
  783.0000      0.0145
  784.0000      0.0145
  785.0000      0.0145
  786.0000      0.0144
  787.0000      0.0144
  788.0000      0.0144
  789.0000      0.0144
  790.0000      0.0144
  791.0000      0.0143
  792.0000      0.0143
  793.0000      0.0142
  794.0000      0.0142
  795.0000      0.0142
  796.0000      0.0141
  797.0000      0.0141
  798.0000      0.0141
  799.0000      0.0141
  800.0000      0.0140
