Start Wavelength:    200.0000
End Wavelength:    800.0000
Read Mode:  ABS
Read Average:      0.1000
Nanometer Interval:      1.0000
Time:      0.0000

  200.0000      1.2196
  201.0000      1.1707
  202.0000      1.1445
  203.0000      1.1185
  204.0000      1.0913
  205.0000      1.0649
  206.0000      1.0384
  207.0000      1.0117
  208.0000      0.9842
  209.0000      0.9476
  210.0000      0.9147
  211.0000      0.8793
  212.0000      0.8428
  213.0000      0.8005
  214.0000      0.7623
  215.0000      0.7230
  216.0000      0.6823
  217.0000      0.6392
  218.0000      0.6012
  219.0000      0.5641
  220.0000      0.5276
  221.0000      0.4916
  222.0000      0.4603
  223.0000      0.4305
  224.0000      0.4035
  225.0000      0.3769
  226.0000      0.3533
  227.0000      0.3331
  228.0000      0.3155
  229.0000      0.2972
  230.0000      0.2834
  231.0000      0.2704
  232.0000      0.2595
  233.0000      0.2489
  234.0000      0.2402
  235.0000      0.2323
  236.0000      0.2258
  237.0000      0.2198
  238.0000      0.2143
  239.0000      0.2097
  240.0000      0.2055
  241.0000      0.2017
  242.0000      0.1990
  243.0000      0.1961
  244.0000      0.1940
  245.0000      0.1917
  246.0000      0.1894
  247.0000      0.1878
  248.0000      0.1859
  249.0000      0.1843
  250.0000      0.1828
  251.0000      0.1818
  252.0000      0.1801
  253.0000      0.1789
  254.0000      0.1780
  255.0000      0.1767
  256.0000      0.1756
  257.0000      0.1745
  258.0000      0.1735
  259.0000      0.1726
  260.0000      0.1716
  261.0000      0.1702
  262.0000      0.1692
  263.0000      0.1678
  264.0000      0.1667
  265.0000      0.1654
  266.0000      0.1639
  267.0000      0.1625
  268.0000      0.1610
  269.0000      0.1602
  270.0000      0.1589
  271.0000      0.1569
  272.0000      0.1552
  273.0000      0.1535
  274.0000      0.1522
  275.0000      0.1509
  276.0000      0.1486
  277.0000      0.1472
  278.0000      0.1456
  279.0000      0.1440
  280.0000      0.1427
  281.0000      0.1408
  282.0000      0.1386
  283.0000      0.1369
  284.0000      0.1349
  285.0000      0.1334
  286.0000      0.1307
  287.0000      0.1291
  288.0000      0.1271
  289.0000      0.1252
  290.0000      0.1238
  291.0000      0.1215
  292.0000      0.1194
  293.0000      0.1180
  294.0000      0.1162
  295.0000      0.1141
  296.0000      0.1125
  297.0000      0.1106
  298.0000      0.1089
  299.0000      0.1071
  300.0000      0.1060
  301.0000      0.1043
  302.0000      0.1020
  303.0000      0.1016
  304.0000      0.1000
  305.0000      0.0987
  306.0000      0.0977
  307.0000      0.0964
  308.0000      0.0951
  309.0000      0.0936
  310.0000      0.0927
  311.0000      0.0920
  312.0000      0.0910
  313.0000      0.0895
  314.0000      0.0882
  315.0000      0.0871
  316.0000      0.0864
  317.0000      0.0853
  318.0000      0.0833
  319.0000      0.0823
  320.0000      0.0815
  321.0000      0.0814
  322.0000      0.0801
  323.0000      0.0789
  324.0000      0.0784
  325.0000      0.0783
  326.0000      0.0774
  327.0000      0.0760
  328.0000      0.0752
  329.0000      0.0745
  330.0000      0.0743
  331.0000      0.0735
  332.0000      0.0727
  333.0000      0.0711
  334.0000      0.0709
  335.0000      0.0704
  336.0000      0.0693
  337.0000      0.0691
  338.0000      0.0686
  339.0000      0.0679
  340.0000      0.0678
  341.0000      0.0670
  342.0000      0.0661
  343.0000      0.0659
  344.0000      0.0656
  345.0000      0.0651
  346.0000      0.0646
  347.0000      0.0635
  348.0000      0.0632
  349.0000      0.0624
  350.0000      0.0616
  351.0000      0.0610
  352.0000      0.0603
  353.0000      0.0598
  354.0000      0.0595
  355.0000      0.0587
  356.0000      0.0580
  357.0000      0.0561
  358.0000      0.0556
  359.0000      0.0564
  360.0000      0.0566
  361.0000      0.0562
  362.0000      0.0529
  363.0000      0.0538
  364.0000      0.0556
  365.0000      0.0538
  366.0000      0.0540
  367.0000      0.0540
  368.0000      0.0518
  369.0000      0.0520
  370.0000      0.0521
  371.0000      0.0513
  372.0000      0.0511
  373.0000      0.0505
  374.0000      0.0499
  375.0000      0.0496
  376.0000      0.0498
  377.0000      0.0495
  378.0000      0.0492
  379.0000      0.0479
  380.0000      0.0473
  381.0000      0.0477
  382.0000      0.0465
  383.0000      0.0468
  384.0000      0.0465
  385.0000      0.0464
  386.0000      0.0461
  387.0000      0.0448
  388.0000      0.0447
  389.0000      0.0445
  390.0000      0.0450
  391.0000      0.0439
  392.0000      0.0434
  393.0000      0.0429
  394.0000      0.0433
  395.0000      0.0426
  396.0000      0.0427
  397.0000      0.0424
  398.0000      0.0417
  399.0000      0.0412
  400.0000      0.0411
  401.0000      0.0408
  402.0000      0.0406
  403.0000      0.0407
  404.0000      0.0401
  405.0000      0.0398
  406.0000      0.0395
  407.0000      0.0397
  408.0000      0.0391
  409.0000      0.0394
  410.0000      0.0388
  411.0000      0.0388
  412.0000      0.0383
  413.0000      0.0380
  414.0000      0.0378
  415.0000      0.0379
  416.0000      0.0376
  417.0000      0.0376
  418.0000      0.0373
  419.0000      0.0369
  420.0000      0.0367
  421.0000      0.0363
  422.0000      0.0360
  423.0000      0.0357
  424.0000      0.0352
  425.0000      0.0349
  426.0000      0.0348
  427.0000      0.0345
  428.0000      0.0342
  429.0000      0.0339
  430.0000      0.0338
  431.0000      0.0336
  432.0000      0.0334
  433.0000      0.0333
  434.0000      0.0332
  435.0000      0.0331
  436.0000      0.0329
  437.0000      0.0328
  438.0000      0.0328
  439.0000      0.0326
  440.0000      0.0324
  441.0000      0.0322
  442.0000      0.0320
  443.0000      0.0319
  444.0000      0.0317
  445.0000      0.0316
  446.0000      0.0315
  447.0000      0.0314
  448.0000      0.0313
  449.0000      0.0312
  450.0000      0.0310
  451.0000      0.0309
  452.0000      0.0307
  453.0000      0.0306
  454.0000      0.0304
  455.0000      0.0302
  456.0000      0.0300
  457.0000      0.0298
  458.0000      0.0296
  459.0000      0.0296
  460.0000      0.0293
  461.0000      0.0292
  462.0000      0.0291
  463.0000      0.0290
  464.0000      0.0288
  465.0000      0.0286
  466.0000      0.0286
  467.0000      0.0284
  468.0000      0.0281
  469.0000      0.0279
  470.0000      0.0277
  471.0000      0.0274
  472.0000      0.0272
  473.0000      0.0269
  474.0000      0.0267
  475.0000      0.0265
  476.0000      0.0262
  477.0000      0.0260
  478.0000      0.0257
  479.0000      0.0256
  480.0000      0.0254
  481.0000      0.0253
  482.0000      0.0252
  483.0000      0.0251
  484.0000      0.0249
  485.0000      0.0247
  486.0000      0.0247
  487.0000      0.0245
  488.0000      0.0244
  489.0000      0.0244
  490.0000      0.0243
  491.0000      0.0243
  492.0000      0.0242
  493.0000      0.0242
  494.0000      0.0242
  495.0000      0.0242
  496.0000      0.0241
  497.0000      0.0240
  498.0000      0.0240
  499.0000      0.0240
  500.0000      0.0239
  501.0000      0.0238
  502.0000      0.0238
  503.0000      0.0237
  504.0000      0.0237
  505.0000      0.0236
  506.0000      0.0235
  507.0000      0.0235
  508.0000      0.0235
  509.0000      0.0234
  510.0000      0.0233
  511.0000      0.0232
  512.0000      0.0231
  513.0000      0.0230
  514.0000      0.0229
  515.0000      0.0228
  516.0000      0.0227
  517.0000      0.0225
  518.0000      0.0224
  519.0000      0.0223
  520.0000      0.0221
  521.0000      0.0220
  522.0000      0.0220
  523.0000      0.0219
  524.0000      0.0220
  525.0000      0.0220
  526.0000      0.0221
  527.0000      0.0221
  528.0000      0.0220
  529.0000      0.0218
  530.0000      0.0217
  531.0000      0.0215
  532.0000      0.0213
  533.0000      0.0212
  534.0000      0.0210
  535.0000      0.0208
  536.0000      0.0208
  537.0000      0.0207
  538.0000      0.0207
  539.0000      0.0207
  540.0000      0.0207
  541.0000      0.0206
  542.0000      0.0206
  543.0000      0.0206
  544.0000      0.0205
  545.0000      0.0204
  546.0000      0.0204
  547.0000      0.0204
  548.0000      0.0205
  549.0000      0.0206
  550.0000      0.0206
  551.0000      0.0206
  552.0000      0.0206
  553.0000      0.0206
  554.0000      0.0206
  555.0000      0.0206
  556.0000      0.0205
  557.0000      0.0218
  558.0000      0.0216
  559.0000      0.0214
  560.0000      0.0212
  561.0000      0.0210
  562.0000      0.0209
  563.0000      0.0209
  564.0000      0.0208
  565.0000      0.0208
  566.0000      0.0207
  567.0000      0.0207
  568.0000      0.0206
  569.0000      0.0204
  570.0000      0.0201
  571.0000      0.0201
  572.0000      0.0200
  573.0000      0.0200
  574.0000      0.0199
  575.0000      0.0199
  576.0000      0.0199
  577.0000      0.0198
  578.0000      0.0197
  579.0000      0.0196
  580.0000      0.0195
  581.0000      0.0194
  582.0000      0.0193
  583.0000      0.0192
  584.0000      0.0191
  585.0000      0.0191
  586.0000      0.0189
  587.0000      0.0188
  588.0000      0.0187
  589.0000      0.0186
  590.0000      0.0185
  591.0000      0.0182
  592.0000      0.0180
  593.0000      0.0179
  594.0000      0.0178
  595.0000      0.0177
  596.0000      0.0177
  597.0000      0.0177
  598.0000      0.0176
  599.0000      0.0175
  600.0000      0.0173
  601.0000      0.0172
  602.0000      0.0171
  603.0000      0.0170
  604.0000      0.0170
  605.0000      0.0169
  606.0000      0.0169
  607.0000      0.0168
  608.0000      0.0169
  609.0000      0.0168
  610.0000      0.0168
  611.0000      0.0167
  612.0000      0.0167
  613.0000      0.0166
  614.0000      0.0166
  615.0000      0.0165
  616.0000      0.0164
  617.0000      0.0163
  618.0000      0.0162
  619.0000      0.0161
  620.0000      0.0161
  621.0000      0.0160
  622.0000      0.0160
  623.0000      0.0159
  624.0000      0.0160
  625.0000      0.0160
  626.0000      0.0159
  627.0000      0.0160
  628.0000      0.0160
  629.0000      0.0160
  630.0000      0.0161
  631.0000      0.0162
  632.0000      0.0162
  633.0000      0.0162
  634.0000      0.0162
  635.0000      0.0161
  636.0000      0.0161
  637.0000      0.0162
  638.0000      0.0162
  639.0000      0.0162
  640.0000      0.0163
  641.0000      0.0164
  642.0000      0.0164
  643.0000      0.0165
  644.0000      0.0165
  645.0000      0.0165
  646.0000      0.0165
  647.0000      0.0164
  648.0000      0.0164
  649.0000      0.0163
  650.0000      0.0163
  651.0000      0.0163
  652.0000      0.0162
  653.0000      0.0162
  654.0000      0.0162
  655.0000      0.0162
  656.0000      0.0162
  657.0000      0.0162
  658.0000      0.0162
  659.0000      0.0162
  660.0000      0.0162
  661.0000      0.0163
  662.0000      0.0164
  663.0000      0.0164
  664.0000      0.0165
  665.0000      0.0166
  666.0000      0.0167
  667.0000      0.0168
  668.0000      0.0169
  669.0000      0.0170
  670.0000      0.0170
  671.0000      0.0170
  672.0000      0.0170
  673.0000      0.0169
  674.0000      0.0170
  675.0000      0.0170
  676.0000      0.0170
  677.0000      0.0171
  678.0000      0.0172
  679.0000      0.0173
  680.0000      0.0174
  681.0000      0.0175
  682.0000      0.0175
  683.0000      0.0175
  684.0000      0.0175
  685.0000      0.0175
  686.0000      0.0174
  687.0000      0.0174
  688.0000      0.0174
  689.0000      0.0173
  690.0000      0.0174
  691.0000      0.0173
  692.0000      0.0173
  693.0000      0.0173
  694.0000      0.0172
  695.0000      0.0171
  696.0000      0.0171
  697.0000      0.0171
  698.0000      0.0170
  699.0000      0.0169
  700.0000      0.0169
  701.0000      0.0169
  702.0000      0.0168
  703.0000      0.0168
  704.0000      0.0168
  705.0000      0.0167
  706.0000      0.0167
  707.0000      0.0167
  708.0000      0.0166
  709.0000      0.0166
  710.0000      0.0166
  711.0000      0.0165
  712.0000      0.0165
  713.0000      0.0164
  714.0000      0.0163
  715.0000      0.0162
  716.0000      0.0161
  717.0000      0.0160
  718.0000      0.0159
  719.0000      0.0157
  720.0000      0.0157
  721.0000      0.0156
  722.0000      0.0156
  723.0000      0.0155
  724.0000      0.0155
  725.0000      0.0154
  726.0000      0.0154
  727.0000      0.0153
  728.0000      0.0152
  729.0000      0.0151
  730.0000      0.0150
  731.0000      0.0149
  732.0000      0.0148
  733.0000      0.0146
  734.0000      0.0146
  735.0000      0.0144
  736.0000      0.0153
  737.0000      0.0154
  738.0000      0.0154
  739.0000      0.0154
  740.0000      0.0156
  741.0000      0.0157
  742.0000      0.0158
  743.0000      0.0158
  744.0000      0.0160
  745.0000      0.0161
  746.0000      0.0161
  747.0000      0.0163
  748.0000      0.0163
  749.0000      0.0164
  750.0000      0.0164
  751.0000      0.0165
  752.0000      0.0166
  753.0000      0.0167
  754.0000      0.0167
  755.0000      0.0167
  756.0000      0.0167
  757.0000      0.0167
  758.0000      0.0166
  759.0000      0.0167
  760.0000      0.0166
  761.0000      0.0166
  762.0000      0.0167
  763.0000      0.0166
  764.0000      0.0165
  765.0000      0.0165
  766.0000      0.0164
  767.0000      0.0163
  768.0000      0.0163
  769.0000      0.0162
  770.0000      0.0160
  771.0000      0.0159
  772.0000      0.0159
  773.0000      0.0157
  774.0000      0.0156
  775.0000      0.0154
  776.0000      0.0153
  777.0000      0.0152
  778.0000      0.0150
  779.0000      0.0149
  780.0000      0.0147
  781.0000      0.0145
  782.0000      0.0145
  783.0000      0.0143
  784.0000      0.0143
  785.0000      0.0142
  786.0000      0.0142
  787.0000      0.0140
  788.0000      0.0140
  789.0000      0.0139
  790.0000      0.0138
  791.0000      0.0137
  792.0000      0.0137
  793.0000      0.0136
  794.0000      0.0136
  795.0000      0.0136
  796.0000      0.0135
  797.0000      0.0135
  798.0000      0.0135
  799.0000      0.0135
  800.0000      0.0134
