Start Wavelength:    200.0000
End Wavelength:    800.0000
Read Mode:  ABS
Read Average:      0.1000
Nanometer Interval:      1.0000
Time:      0.0000

  200.0000      2.4283
  201.0000      2.4599
  202.0000      2.6586
  203.0000      2.4459
  204.0000      2.4114
  205.0000      2.5487
  206.0000      2.4322
  207.0000      2.4603
  208.0000      2.3940
  209.0000      2.3586
  210.0000      2.2671
  211.0000      2.1790
  212.0000      2.0710
  213.0000      1.9622
  214.0000      1.8531
  215.0000      1.7272
  216.0000      1.6106
  217.0000      1.4724
  218.0000      1.3632
  219.0000      1.2382
  220.0000      1.1280
  221.0000      1.0127
  222.0000      0.9127
  223.0000      0.8198
  224.0000      0.7345
  225.0000      0.6502
  226.0000      0.5796
  227.0000      0.5180
  228.0000      0.4631
  229.0000      0.4099
  230.0000      0.3681
  231.0000      0.3325
  232.0000      0.3014
  233.0000      0.2718
  234.0000      0.2494
  235.0000      0.2303
  236.0000      0.2144
  237.0000      0.1994
  238.0000      0.1882
  239.0000      0.1788
  240.0000      0.1712
  241.0000      0.1639
  242.0000      0.1587
  243.0000      0.1543
  244.0000      0.1507
  245.0000      0.1471
  246.0000      0.1443
  247.0000      0.1424
  248.0000      0.1399
  249.0000      0.1383
  250.0000      0.1366
  251.0000      0.1361
  252.0000      0.1345
  253.0000      0.1332
  254.0000      0.1326
  255.0000      0.1316
  256.0000      0.1306
  257.0000      0.1297
  258.0000      0.1291
  259.0000      0.1281
  260.0000      0.1278
  261.0000      0.1266
  262.0000      0.1262
  263.0000      0.1250
  264.0000      0.1241
  265.0000      0.1236
  266.0000      0.1225
  267.0000      0.1214
  268.0000      0.1202
  269.0000      0.1201
  270.0000      0.1195
  271.0000      0.1182
  272.0000      0.1172
  273.0000      0.1166
  274.0000      0.1158
  275.0000      0.1143
  276.0000      0.1133
  277.0000      0.1123
  278.0000      0.1115
  279.0000      0.1107
  280.0000      0.1098
  281.0000      0.1082
  282.0000      0.1067
  283.0000      0.1058
  284.0000      0.1049
  285.0000      0.1043
  286.0000      0.1024
  287.0000      0.1017
  288.0000      0.1003
  289.0000      0.0999
  290.0000      0.0988
  291.0000      0.0972
  292.0000      0.0963
  293.0000      0.0952
  294.0000      0.0944
  295.0000      0.0925
  296.0000      0.0919
  297.0000      0.0903
  298.0000      0.0899
  299.0000      0.0886
  300.0000      0.0882
  301.0000      0.0864
  302.0000      0.0853
  303.0000      0.0851
  304.0000      0.0837
  305.0000      0.0829
  306.0000      0.0815
  307.0000      0.0810
  308.0000      0.0803
  309.0000      0.0793
  310.0000      0.0785
  311.0000      0.0776
  312.0000      0.0770
  313.0000      0.0757
  314.0000      0.0748
  315.0000      0.0737
  316.0000      0.0738
  317.0000      0.0731
  318.0000      0.0721
  319.0000      0.0706
  320.0000      0.0696
  321.0000      0.0701
  322.0000      0.0696
  323.0000      0.0683
  324.0000      0.0679
  325.0000      0.0673
  326.0000      0.0666
  327.0000      0.0657
  328.0000      0.0653
  329.0000      0.0645
  330.0000      0.0641
  331.0000      0.0641
  332.0000      0.0630
  333.0000      0.0623
  334.0000      0.0615
  335.0000      0.0613
  336.0000      0.0607
  337.0000      0.0600
  338.0000      0.0591
  339.0000      0.0590
  340.0000      0.0587
  341.0000      0.0577
  342.0000      0.0574
  343.0000      0.0565
  344.0000      0.0565
  345.0000      0.0560
  346.0000      0.0558
  347.0000      0.0548
  348.0000      0.0543
  349.0000      0.0543
  350.0000      0.0534
  351.0000      0.0532
  352.0000      0.0525
  353.0000      0.0526
  354.0000      0.0521
  355.0000      0.0515
  356.0000      0.0510
  357.0000      0.0520
  358.0000      0.0513
  359.0000      0.0515
  360.0000      0.0525
  361.0000      0.0504
  362.0000      0.0500
  363.0000      0.0505
  364.0000      0.0516
  365.0000      0.0508
  366.0000      0.0496
  367.0000      0.0501
  368.0000      0.0489
  369.0000      0.0491
  370.0000      0.0476
  371.0000      0.0484
  372.0000      0.0481
  373.0000      0.0474
  374.0000      0.0469
  375.0000      0.0466
  376.0000      0.0473
  377.0000      0.0464
  378.0000      0.0471
  379.0000      0.0451
  380.0000      0.0451
  381.0000      0.0456
  382.0000      0.0445
  383.0000      0.0451
  384.0000      0.0442
  385.0000      0.0447
  386.0000      0.0434
  387.0000      0.0438
  388.0000      0.0422
  389.0000      0.0434
  390.0000      0.0433
  391.0000      0.0423
  392.0000      0.0418
  393.0000      0.0416
  394.0000      0.0420
  395.0000      0.0411
  396.0000      0.0416
  397.0000      0.0410
  398.0000      0.0406
  399.0000      0.0400
  400.0000      0.0400
  401.0000      0.0401
  402.0000      0.0395
  403.0000      0.0396
  404.0000      0.0389
  405.0000      0.0391
  406.0000      0.0387
  407.0000      0.0389
  408.0000      0.0389
  409.0000      0.0384
  410.0000      0.0379
  411.0000      0.0380
  412.0000      0.0379
  413.0000      0.0372
  414.0000      0.0375
  415.0000      0.0374
  416.0000      0.0357
  417.0000      0.0354
  418.0000      0.0354
  419.0000      0.0350
  420.0000      0.0348
  421.0000      0.0347
  422.0000      0.0345
  423.0000      0.0344
  424.0000      0.0340
  425.0000      0.0338
  426.0000      0.0337
  427.0000      0.0335
  428.0000      0.0332
  429.0000      0.0329
  430.0000      0.0329
  431.0000      0.0326
  432.0000      0.0326
  433.0000      0.0324
  434.0000      0.0323
  435.0000      0.0321
  436.0000      0.0319
  437.0000      0.0318
  438.0000      0.0316
  439.0000      0.0315
  440.0000      0.0313
  441.0000      0.0312
  442.0000      0.0310
  443.0000      0.0309
  444.0000      0.0307
  445.0000      0.0305
  446.0000      0.0304
  447.0000      0.0303
  448.0000      0.0303
  449.0000      0.0304
  450.0000      0.0303
  451.0000      0.0302
  452.0000      0.0301
  453.0000      0.0300
  454.0000      0.0298
  455.0000      0.0297
  456.0000      0.0295
  457.0000      0.0294
  458.0000      0.0293
  459.0000      0.0292
  460.0000      0.0290
  461.0000      0.0290
  462.0000      0.0288
  463.0000      0.0288
  464.0000      0.0287
  465.0000      0.0285
  466.0000      0.0286
  467.0000      0.0285
  468.0000      0.0284
  469.0000      0.0283
  470.0000      0.0282
  471.0000      0.0281
  472.0000      0.0278
  473.0000      0.0278
  474.0000      0.0276
  475.0000      0.0275
  476.0000      0.0272
  477.0000      0.0272
  478.0000      0.0270
  479.0000      0.0268
  480.0000      0.0268
  481.0000      0.0266
  482.0000      0.0264
  483.0000      0.0263
  484.0000      0.0261
  485.0000      0.0260
  486.0000      0.0259
  487.0000      0.0258
  488.0000      0.0256
  489.0000      0.0255
  490.0000      0.0254
  491.0000      0.0253
  492.0000      0.0251
  493.0000      0.0251
  494.0000      0.0250
  495.0000      0.0250
  496.0000      0.0250
  497.0000      0.0249
  498.0000      0.0249
  499.0000      0.0248
  500.0000      0.0248
  501.0000      0.0247
  502.0000      0.0246
  503.0000      0.0246
  504.0000      0.0245
  505.0000      0.0245
  506.0000      0.0245
  507.0000      0.0244
  508.0000      0.0244
  509.0000      0.0243
  510.0000      0.0243
  511.0000      0.0242
  512.0000      0.0241
  513.0000      0.0240
  514.0000      0.0239
  515.0000      0.0238
  516.0000      0.0236
  517.0000      0.0235
  518.0000      0.0234
  519.0000      0.0233
  520.0000      0.0232
  521.0000      0.0231
  522.0000      0.0230
  523.0000      0.0229
  524.0000      0.0228
  525.0000      0.0228
  526.0000      0.0228
  527.0000      0.0227
  528.0000      0.0227
  529.0000      0.0226
  530.0000      0.0226
  531.0000      0.0226
  532.0000      0.0225
  533.0000      0.0225
  534.0000      0.0226
  535.0000      0.0226
  536.0000      0.0225
  537.0000      0.0226
  538.0000      0.0226
  539.0000      0.0225
  540.0000      0.0225
  541.0000      0.0225
  542.0000      0.0225
  543.0000      0.0225
  544.0000      0.0225
  545.0000      0.0225
  546.0000      0.0224
  547.0000      0.0224
  548.0000      0.0223
  549.0000      0.0222
  550.0000      0.0222
  551.0000      0.0222
  552.0000      0.0221
  553.0000      0.0219
  554.0000      0.0218
  555.0000      0.0218
  556.0000      0.0218
  557.0000      0.0220
  558.0000      0.0218
  559.0000      0.0216
  560.0000      0.0215
  561.0000      0.0213
  562.0000      0.0212
  563.0000      0.0211
  564.0000      0.0210
  565.0000      0.0209
  566.0000      0.0207
  567.0000      0.0206
  568.0000      0.0205
  569.0000      0.0204
  570.0000      0.0202
  571.0000      0.0201
  572.0000      0.0200
  573.0000      0.0199
  574.0000      0.0198
  575.0000      0.0197
  576.0000      0.0196
  577.0000      0.0194
  578.0000      0.0192
  579.0000      0.0191
  580.0000      0.0190
  581.0000      0.0189
  582.0000      0.0189
  583.0000      0.0187
  584.0000      0.0187
  585.0000      0.0185
  586.0000      0.0185
  587.0000      0.0184
  588.0000      0.0183
  589.0000      0.0183
  590.0000      0.0182
  591.0000      0.0182
  592.0000      0.0181
  593.0000      0.0181
  594.0000      0.0181
  595.0000      0.0180
  596.0000      0.0180
  597.0000      0.0180
  598.0000      0.0180
  599.0000      0.0180
  600.0000      0.0179
  601.0000      0.0178
  602.0000      0.0178
  603.0000      0.0178
  604.0000      0.0178
  605.0000      0.0178
  606.0000      0.0178
  607.0000      0.0179
  608.0000      0.0178
  609.0000      0.0177
  610.0000      0.0177
  611.0000      0.0176
  612.0000      0.0176
  613.0000      0.0176
  614.0000      0.0175
  615.0000      0.0175
  616.0000      0.0175
  617.0000      0.0174
  618.0000      0.0174
  619.0000      0.0175
  620.0000      0.0175
  621.0000      0.0175
  622.0000      0.0176
  623.0000      0.0176
  624.0000      0.0177
  625.0000      0.0177
  626.0000      0.0178
  627.0000      0.0179
  628.0000      0.0179
  629.0000      0.0179
  630.0000      0.0179
  631.0000      0.0179
  632.0000      0.0179
  633.0000      0.0179
  634.0000      0.0178
  635.0000      0.0178
  636.0000      0.0179
  637.0000      0.0181
  638.0000      0.0182
  639.0000      0.0183
  640.0000      0.0184
  641.0000      0.0185
  642.0000      0.0186
  643.0000      0.0186
  644.0000      0.0187
  645.0000      0.0187
  646.0000      0.0187
  647.0000      0.0188
  648.0000      0.0188
  649.0000      0.0188
  650.0000      0.0188
  651.0000      0.0188
  652.0000      0.0187
  653.0000      0.0186
  654.0000      0.0186
  655.0000      0.0185
  656.0000      0.0184
  657.0000      0.0184
  658.0000      0.0183
  659.0000      0.0183
  660.0000      0.0182
  661.0000      0.0182
  662.0000      0.0182
  663.0000      0.0182
  664.0000      0.0181
  665.0000      0.0181
  666.0000      0.0180
  667.0000      0.0179
  668.0000      0.0179
  669.0000      0.0179
  670.0000      0.0179
  671.0000      0.0178
  672.0000      0.0178
  673.0000      0.0178
  674.0000      0.0178
  675.0000      0.0179
  676.0000      0.0179
  677.0000      0.0179
  678.0000      0.0178
  679.0000      0.0179
  680.0000      0.0179
  681.0000      0.0178
  682.0000      0.0178
  683.0000      0.0177
  684.0000      0.0177
  685.0000      0.0177
  686.0000      0.0177
  687.0000      0.0176
  688.0000      0.0177
  689.0000      0.0176
  690.0000      0.0176
  691.0000      0.0175
  692.0000      0.0175
  693.0000      0.0174
  694.0000      0.0174
  695.0000      0.0173
  696.0000      0.0173
  697.0000      0.0172
  698.0000      0.0171
  699.0000      0.0171
  700.0000      0.0170
  701.0000      0.0169
  702.0000      0.0169
  703.0000      0.0168
  704.0000      0.0168
  705.0000      0.0168
  706.0000      0.0169
  707.0000      0.0169
  708.0000      0.0169
  709.0000      0.0168
  710.0000      0.0169
  711.0000      0.0169
  712.0000      0.0169
  713.0000      0.0169
  714.0000      0.0168
  715.0000      0.0167
  716.0000      0.0167
  717.0000      0.0168
  718.0000      0.0167
  719.0000      0.0167
  720.0000      0.0165
  721.0000      0.0165
  722.0000      0.0165
  723.0000      0.0165
  724.0000      0.0165
  725.0000      0.0165
  726.0000      0.0164
  727.0000      0.0164
  728.0000      0.0163
  729.0000      0.0162
  730.0000      0.0161
  731.0000      0.0160
  732.0000      0.0160
  733.0000      0.0159
  734.0000      0.0158
  735.0000      0.0157
  736.0000      0.0157
  737.0000      0.0158
  738.0000      0.0157
  739.0000      0.0156
  740.0000      0.0155
  741.0000      0.0154
  742.0000      0.0153
  743.0000      0.0152
  744.0000      0.0152
  745.0000      0.0151
  746.0000      0.0150
  747.0000      0.0150
  748.0000      0.0149
  749.0000      0.0149
  750.0000      0.0149
  751.0000      0.0148
  752.0000      0.0148
  753.0000      0.0148
  754.0000      0.0148
  755.0000      0.0147
  756.0000      0.0147
  757.0000      0.0147
  758.0000      0.0146
  759.0000      0.0146
  760.0000      0.0146
  761.0000      0.0145
  762.0000      0.0145
  763.0000      0.0145
  764.0000      0.0145
  765.0000      0.0145
  766.0000      0.0144
  767.0000      0.0144
  768.0000      0.0144
  769.0000      0.0144
  770.0000      0.0144
  771.0000      0.0144
  772.0000      0.0144
  773.0000      0.0143
  774.0000      0.0143
  775.0000      0.0142
  776.0000      0.0143
  777.0000      0.0142
  778.0000      0.0142
  779.0000      0.0142
  780.0000      0.0142
  781.0000      0.0142
  782.0000      0.0142
  783.0000      0.0141
  784.0000      0.0141
  785.0000      0.0142
  786.0000      0.0141
  787.0000      0.0141
  788.0000      0.0140
  789.0000      0.0140
  790.0000      0.0140
  791.0000      0.0139
  792.0000      0.0138
  793.0000      0.0138
  794.0000      0.0138
  795.0000      0.0137
  796.0000      0.0137
  797.0000      0.0136
  798.0000      0.0135
  799.0000      0.0135
  800.0000      0.0134
