Start Wavelength:    200.0000
End Wavelength:    800.0000
Read Mode:  ABS
Read Average:      0.1000
Nanometer Interval:      1.0000
Time:      0.0000

  200.0000     -0.0083
  201.0000     -0.0070
  202.0000     -0.0075
  203.0000     -0.0077
  204.0000     -0.0065
  205.0000     -0.0061
  206.0000     -0.0061
  207.0000     -0.0060
  208.0000     -0.0058
  209.0000     -0.0052
  210.0000     -0.0048
  211.0000     -0.0054
  212.0000     -0.0045
  213.0000     -0.0046
  214.0000     -0.0042
  215.0000     -0.0039
  216.0000     -0.0037
  217.0000     -0.0036
  218.0000     -0.0035
  219.0000     -0.0032
  220.0000     -0.0034
  221.0000     -0.0033
  222.0000     -0.0031
  223.0000     -0.0032
  224.0000     -0.0028
  225.0000     -0.0030
  226.0000     -0.0031
  227.0000     -0.0028
  228.0000     -0.0027
  229.0000     -0.0031
  230.0000     -0.0026
  231.0000     -0.0030
  232.0000     -0.0027
  233.0000     -0.0027
  234.0000     -0.0028
  235.0000     -0.0029
  236.0000     -0.0028
  237.0000     -0.0028
  238.0000     -0.0030
  239.0000     -0.0028
  240.0000     -0.0031
  241.0000     -0.0031
  242.0000     -0.0028
  243.0000     -0.0029
  244.0000     -0.0027
  245.0000     -0.0028
  246.0000     -0.0029
  247.0000     -0.0028
  248.0000     -0.0031
  249.0000     -0.0031
  250.0000     -0.0031
  251.0000     -0.0030
  252.0000     -0.0030
  253.0000     -0.0033
  254.0000     -0.0029
  255.0000     -0.0033
  256.0000     -0.0029
  257.0000     -0.0032
  258.0000     -0.0028
  259.0000     -0.0033
  260.0000     -0.0028
  261.0000     -0.0030
  262.0000     -0.0028
  263.0000     -0.0031
  264.0000     -0.0029
  265.0000     -0.0032
  266.0000     -0.0031
  267.0000     -0.0035
  268.0000     -0.0033
  269.0000     -0.0034
  270.0000     -0.0027
  271.0000     -0.0032
  272.0000     -0.0031
  273.0000     -0.0034
  274.0000     -0.0028
  275.0000     -0.0029
  276.0000     -0.0029
  277.0000     -0.0033
  278.0000     -0.0028
  279.0000     -0.0029
  280.0000     -0.0025
  281.0000     -0.0026
  282.0000     -0.0029
  283.0000     -0.0030
  284.0000     -0.0023
  285.0000     -0.0026
  286.0000     -0.0031
  287.0000     -0.0030
  288.0000     -0.0027
  289.0000     -0.0028
  290.0000     -0.0022
  291.0000     -0.0028
  292.0000     -0.0026
  293.0000     -0.0031
  294.0000     -0.0020
  295.0000     -0.0029
  296.0000     -0.0022
  297.0000     -0.0031
  298.0000     -0.0023
  299.0000     -0.0023
  300.0000     -0.0020
  301.0000     -0.0024
  302.0000     -0.0028
  303.0000     -0.0026
  304.0000     -0.0025
  305.0000     -0.0027
  306.0000     -0.0026
  307.0000     -0.0029
  308.0000     -0.0026
  309.0000     -0.0026
  310.0000     -0.0024
  311.0000     -0.0024
  312.0000     -0.0018
  313.0000     -0.0028
  314.0000     -0.0026
  315.0000     -0.0027
  316.0000     -0.0021
  317.0000     -0.0022
  318.0000     -0.0026
  319.0000     -0.0029
  320.0000     -0.0028
  321.0000     -0.0023
  322.0000     -0.0023
  323.0000     -0.0023
  324.0000     -0.0024
  325.0000     -0.0020
  326.0000     -0.0021
  327.0000     -0.0022
  328.0000     -0.0020
  329.0000     -0.0026
  330.0000     -0.0019
  331.0000     -0.0014
  332.0000     -0.0021
  333.0000     -0.0026
  334.0000     -0.0021
  335.0000     -0.0019
  336.0000     -0.0024
  337.0000     -0.0024
  338.0000     -0.0023
  339.0000     -0.0023
  340.0000     -0.0019
  341.0000     -0.0023
  342.0000     -0.0024
  343.0000     -0.0025
  344.0000     -0.0021
  345.0000     -0.0020
  346.0000     -0.0020
  347.0000     -0.0024
  348.0000     -0.0023
  349.0000     -0.0021
  350.0000     -0.0023
  351.0000     -0.0023
  352.0000     -0.0022
  353.0000     -0.0021
  354.0000     -0.0023
  355.0000     -0.0025
  356.0000     -0.0028
  357.0000     -0.0005
  358.0000     -0.0026
  359.0000     -0.0002
  360.0000     -0.0006
  361.0000      0.0002
  362.0000     -0.0022
  363.0000     -0.0010
  364.0000     -0.0008
  365.0000      0.0004
  366.0000     -0.0015
  367.0000     -0.0005
  368.0000     -0.0014
  369.0000     -0.0009
  370.0000     -0.0020
  371.0000     -0.0006
  372.0000     -0.0013
  373.0000     -0.0009
  374.0000     -0.0016
  375.0000     -0.0006
  376.0000     -0.0010
  377.0000      0.0001
  378.0000     -0.0003
  379.0000     -0.0007
  380.0000     -0.0017
  381.0000     -0.0002
  382.0000     -0.0011
  383.0000     -0.0002
  384.0000     -0.0015
  385.0000      0.0002
  386.0000     -0.0010
  387.0000     -0.0014
  388.0000     -0.0012
  389.0000     -0.0005
  390.0000     -0.0003
  391.0000     -0.0010
  392.0000     -0.0010
  393.0000     -0.0007
  394.0000     -0.0010
  395.0000     -0.0009
  396.0000     -0.0007
  397.0000     -0.0005
  398.0000     -0.0014
  399.0000     -0.0011
  400.0000     -0.0013
  401.0000     -0.0015
  402.0000     -0.0013
  403.0000     -0.0010
  404.0000     -0.0016
  405.0000     -0.0015
  406.0000     -0.0013
  407.0000     -0.0012
  408.0000     -0.0009
  409.0000     -0.0013
  410.0000     -0.0016
  411.0000     -0.0011
  412.0000     -0.0013
  413.0000     -0.0015
  414.0000     -0.0013
  415.0000     -0.0012
  416.0000     -0.0023
  417.0000     -0.0023
  418.0000     -0.0021
  419.0000     -0.0023
  420.0000     -0.0022
  421.0000     -0.0024
  422.0000     -0.0023
  423.0000     -0.0023
  424.0000     -0.0025
  425.0000     -0.0025
  426.0000     -0.0023
  427.0000     -0.0022
  428.0000     -0.0024
  429.0000     -0.0024
  430.0000     -0.0024
  431.0000     -0.0025
  432.0000     -0.0025
  433.0000     -0.0025
  434.0000     -0.0024
  435.0000     -0.0025
  436.0000     -0.0025
  437.0000     -0.0026
  438.0000     -0.0026
  439.0000     -0.0025
  440.0000     -0.0025
  441.0000     -0.0025
  442.0000     -0.0025
  443.0000     -0.0025
  444.0000     -0.0026
  445.0000     -0.0026
  446.0000     -0.0026
  447.0000     -0.0026
  448.0000     -0.0026
  449.0000     -0.0026
  450.0000     -0.0026
  451.0000     -0.0026
  452.0000     -0.0026
  453.0000     -0.0026
  454.0000     -0.0025
  455.0000     -0.0026
  456.0000     -0.0026
  457.0000     -0.0026
  458.0000     -0.0027
  459.0000     -0.0026
  460.0000     -0.0027
  461.0000     -0.0027
  462.0000     -0.0027
  463.0000     -0.0026
  464.0000     -0.0027
  465.0000     -0.0028
  466.0000     -0.0027
  467.0000     -0.0027
  468.0000     -0.0027
  469.0000     -0.0026
  470.0000     -0.0026
  471.0000     -0.0026
  472.0000     -0.0026
  473.0000     -0.0026
  474.0000     -0.0027
  475.0000     -0.0026
  476.0000     -0.0027
  477.0000     -0.0027
  478.0000     -0.0028
  479.0000     -0.0028
  480.0000     -0.0028
  481.0000     -0.0028
  482.0000     -0.0029
  483.0000     -0.0029
  484.0000     -0.0029
  485.0000     -0.0030
  486.0000     -0.0030
  487.0000     -0.0030
  488.0000     -0.0030
  489.0000     -0.0031
  490.0000     -0.0030
  491.0000     -0.0030
  492.0000     -0.0030
  493.0000     -0.0031
  494.0000     -0.0031
  495.0000     -0.0030
  496.0000     -0.0031
  497.0000     -0.0031
  498.0000     -0.0031
  499.0000     -0.0031
  500.0000     -0.0031
  501.0000     -0.0032
  502.0000     -0.0032
  503.0000     -0.0032
  504.0000     -0.0032
  505.0000     -0.0032
  506.0000     -0.0032
  507.0000     -0.0033
  508.0000     -0.0032
  509.0000     -0.0033
  510.0000     -0.0033
  511.0000     -0.0033
  512.0000     -0.0033
  513.0000     -0.0033
  514.0000     -0.0033
  515.0000     -0.0033
  516.0000     -0.0033
  517.0000     -0.0033
  518.0000     -0.0033
  519.0000     -0.0033
  520.0000     -0.0034
  521.0000     -0.0034
  522.0000     -0.0033
  523.0000     -0.0033
  524.0000     -0.0034
  525.0000     -0.0034
  526.0000     -0.0034
  527.0000     -0.0034
  528.0000     -0.0034
  529.0000     -0.0034
  530.0000     -0.0035
  531.0000     -0.0034
  532.0000     -0.0035
  533.0000     -0.0035
  534.0000     -0.0035
  535.0000     -0.0035
  536.0000     -0.0035
  537.0000     -0.0035
  538.0000     -0.0035
  539.0000     -0.0035
  540.0000     -0.0035
  541.0000     -0.0035
  542.0000     -0.0035
  543.0000     -0.0036
  544.0000     -0.0036
  545.0000     -0.0036
  546.0000     -0.0036
  547.0000     -0.0036
  548.0000     -0.0037
  549.0000     -0.0036
  550.0000     -0.0037
  551.0000     -0.0037
  552.0000     -0.0037
  553.0000     -0.0037
  554.0000     -0.0037
  555.0000     -0.0038
  556.0000     -0.0038
  557.0000     -0.0023
  558.0000     -0.0024
  559.0000     -0.0025
  560.0000     -0.0026
  561.0000     -0.0027
  562.0000     -0.0028
  563.0000     -0.0028
  564.0000     -0.0029
  565.0000     -0.0030
  566.0000     -0.0031
  567.0000     -0.0031
  568.0000     -0.0032
  569.0000     -0.0032
  570.0000     -0.0033
  571.0000     -0.0033
  572.0000     -0.0034
  573.0000     -0.0034
  574.0000     -0.0035
  575.0000     -0.0035
  576.0000     -0.0035
  577.0000     -0.0036
  578.0000     -0.0036
  579.0000     -0.0036
  580.0000     -0.0037
  581.0000     -0.0037
  582.0000     -0.0037
  583.0000     -0.0037
  584.0000     -0.0037
  585.0000     -0.0037
  586.0000     -0.0037
  587.0000     -0.0037
  588.0000     -0.0037
  589.0000     -0.0037
  590.0000     -0.0037
  591.0000     -0.0037
  592.0000     -0.0037
  593.0000     -0.0037
  594.0000     -0.0037
  595.0000     -0.0037
  596.0000     -0.0037
  597.0000     -0.0037
  598.0000     -0.0038
  599.0000     -0.0038
  600.0000     -0.0038
  601.0000     -0.0038
  602.0000     -0.0038
  603.0000     -0.0039
  604.0000     -0.0039
  605.0000     -0.0038
  606.0000     -0.0039
  607.0000     -0.0038
  608.0000     -0.0039
  609.0000     -0.0038
  610.0000     -0.0038
  611.0000     -0.0038
  612.0000     -0.0038
  613.0000     -0.0038
  614.0000     -0.0038
  615.0000     -0.0038
  616.0000     -0.0038
  617.0000     -0.0038
  618.0000     -0.0038
  619.0000     -0.0038
  620.0000     -0.0037
  621.0000     -0.0037
  622.0000     -0.0036
  623.0000     -0.0035
  624.0000     -0.0034
  625.0000     -0.0034
  626.0000     -0.0033
  627.0000     -0.0032
  628.0000     -0.0032
  629.0000     -0.0031
  630.0000     -0.0031
  631.0000     -0.0030
  632.0000     -0.0029
  633.0000     -0.0029
  634.0000     -0.0028
  635.0000     -0.0028
  636.0000     -0.0027
  637.0000     -0.0027
  638.0000     -0.0027
  639.0000     -0.0026
  640.0000     -0.0026
  641.0000     -0.0025
  642.0000     -0.0025
  643.0000     -0.0024
  644.0000     -0.0024
  645.0000     -0.0024
  646.0000     -0.0024
  647.0000     -0.0024
  648.0000     -0.0023
  649.0000     -0.0023
  650.0000     -0.0023
  651.0000     -0.0023
  652.0000     -0.0022
  653.0000     -0.0022
  654.0000     -0.0022
  655.0000     -0.0022
  656.0000     -0.0022
  657.0000     -0.0021
  658.0000     -0.0021
  659.0000     -0.0021
  660.0000     -0.0021
  661.0000     -0.0021
  662.0000     -0.0021
  663.0000     -0.0021
  664.0000     -0.0021
  665.0000     -0.0021
  666.0000     -0.0021
  667.0000     -0.0021
  668.0000     -0.0021
  669.0000     -0.0021
  670.0000     -0.0020
  671.0000     -0.0020
  672.0000     -0.0020
  673.0000     -0.0021
  674.0000     -0.0020
  675.0000     -0.0020
  676.0000     -0.0020
  677.0000     -0.0020
  678.0000     -0.0020
  679.0000     -0.0019
  680.0000     -0.0019
  681.0000     -0.0019
  682.0000     -0.0019
  683.0000     -0.0019
  684.0000     -0.0019
  685.0000     -0.0019
  686.0000     -0.0019
  687.0000     -0.0019
  688.0000     -0.0019
  689.0000     -0.0019
  690.0000     -0.0019
  691.0000     -0.0019
  692.0000     -0.0018
  693.0000     -0.0018
  694.0000     -0.0018
  695.0000     -0.0018
  696.0000     -0.0018
  697.0000     -0.0018
  698.0000     -0.0018
  699.0000     -0.0018
  700.0000     -0.0018
  701.0000     -0.0018
  702.0000     -0.0018
  703.0000     -0.0018
  704.0000     -0.0018
  705.0000     -0.0018
  706.0000     -0.0017
  707.0000     -0.0018
  708.0000     -0.0017
  709.0000     -0.0017
  710.0000     -0.0017
  711.0000     -0.0017
  712.0000     -0.0016
  713.0000     -0.0016
  714.0000     -0.0017
  715.0000     -0.0016
  716.0000     -0.0016
  717.0000     -0.0016
  718.0000     -0.0016
  719.0000     -0.0016
  720.0000     -0.0016
  721.0000     -0.0016
  722.0000     -0.0016
  723.0000     -0.0016
  724.0000     -0.0016
  725.0000     -0.0015
  726.0000     -0.0015
  727.0000     -0.0015
  728.0000     -0.0015
  729.0000     -0.0015
  730.0000     -0.0015
  731.0000     -0.0015
  732.0000     -0.0015
  733.0000     -0.0015
  734.0000     -0.0015
  735.0000     -0.0016
  736.0000     -0.0012
  737.0000     -0.0012
  738.0000     -0.0013
  739.0000     -0.0014
  740.0000     -0.0013
  741.0000     -0.0014
  742.0000     -0.0014
  743.0000     -0.0014
  744.0000     -0.0014
  745.0000     -0.0015
  746.0000     -0.0015
  747.0000     -0.0015
  748.0000     -0.0016
  749.0000     -0.0015
  750.0000     -0.0016
  751.0000     -0.0016
  752.0000     -0.0016
  753.0000     -0.0016
  754.0000     -0.0016
  755.0000     -0.0016
  756.0000     -0.0016
  757.0000     -0.0016
  758.0000     -0.0016
  759.0000     -0.0016
  760.0000     -0.0017
  761.0000     -0.0017
  762.0000     -0.0017
  763.0000     -0.0017
  764.0000     -0.0017
  765.0000     -0.0017
  766.0000     -0.0017
  767.0000     -0.0018
  768.0000     -0.0018
  769.0000     -0.0018
  770.0000     -0.0018
  771.0000     -0.0018
  772.0000     -0.0018
  773.0000     -0.0018
  774.0000     -0.0018
  775.0000     -0.0019
  776.0000     -0.0018
  777.0000     -0.0018
  778.0000     -0.0019
  779.0000     -0.0018
  780.0000     -0.0019
  781.0000     -0.0019
  782.0000     -0.0019
  783.0000     -0.0019
  784.0000     -0.0019
  785.0000     -0.0019
  786.0000     -0.0019
  787.0000     -0.0019
  788.0000     -0.0019
  789.0000     -0.0020
  790.0000     -0.0019
  791.0000     -0.0020
  792.0000     -0.0019
  793.0000     -0.0020
  794.0000     -0.0019
  795.0000     -0.0019
  796.0000     -0.0020
  797.0000     -0.0020
  798.0000     -0.0020
  799.0000     -0.0020
  800.0000     -0.0021
