Start Wavelength:    200.0000
End Wavelength:    800.0000
Read Mode:  ABS
Read Average:      0.1000
Nanometer Interval:      1.0000
Time:      0.0000

  200.0000     -0.0034
  201.0000     -0.0023
  202.0000     -0.0030
  203.0000     -0.0030
  204.0000     -0.0026
  205.0000     -0.0027
  206.0000     -0.0022
  207.0000     -0.0021
  208.0000     -0.0027
  209.0000     -0.0021
  210.0000     -0.0028
  211.0000     -0.0020
  212.0000     -0.0019
  213.0000     -0.0021
  214.0000     -0.0018
  215.0000     -0.0020
  216.0000     -0.0017
  217.0000     -0.0017
  218.0000     -0.0020
  219.0000     -0.0018
  220.0000     -0.0021
  221.0000     -0.0021
  222.0000     -0.0019
  223.0000     -0.0013
  224.0000     -0.0020
  225.0000     -0.0018
  226.0000     -0.0014
  227.0000     -0.0014
  228.0000     -0.0013
  229.0000     -0.0014
  230.0000     -0.0019
  231.0000     -0.0017
  232.0000     -0.0018
  233.0000     -0.0019
  234.0000     -0.0017
  235.0000     -0.0020
  236.0000     -0.0017
  237.0000     -0.0019
  238.0000     -0.0018
  239.0000     -0.0020
  240.0000     -0.0019
  241.0000     -0.0019
  242.0000     -0.0021
  243.0000     -0.0018
  244.0000     -0.0022
  245.0000     -0.0022
  246.0000     -0.0018
  247.0000     -0.0023
  248.0000     -0.0023
  249.0000     -0.0022
  250.0000     -0.0027
  251.0000     -0.0024
  252.0000     -0.0021
  253.0000     -0.0024
  254.0000     -0.0026
  255.0000     -0.0018
  256.0000     -0.0021
  257.0000     -0.0019
  258.0000     -0.0021
  259.0000     -0.0024
  260.0000     -0.0024
  261.0000     -0.0021
  262.0000     -0.0027
  263.0000     -0.0025
  264.0000     -0.0024
  265.0000     -0.0022
  266.0000     -0.0021
  267.0000     -0.0025
  268.0000     -0.0020
  269.0000     -0.0026
  270.0000     -0.0026
  271.0000     -0.0028
  272.0000     -0.0026
  273.0000     -0.0022
  274.0000     -0.0021
  275.0000     -0.0022
  276.0000     -0.0021
  277.0000     -0.0022
  278.0000     -0.0017
  279.0000     -0.0023
  280.0000     -0.0028
  281.0000     -0.0025
  282.0000     -0.0021
  283.0000     -0.0024
  284.0000     -0.0026
  285.0000     -0.0026
  286.0000     -0.0019
  287.0000     -0.0016
  288.0000     -0.0020
  289.0000     -0.0019
  290.0000     -0.0025
  291.0000     -0.0024
  292.0000     -0.0022
  293.0000     -0.0026
  294.0000     -0.0022
  295.0000     -0.0022
  296.0000     -0.0024
  297.0000     -0.0023
  298.0000     -0.0023
  299.0000     -0.0021
  300.0000     -0.0021
  301.0000     -0.0024
  302.0000     -0.0022
  303.0000     -0.0021
  304.0000     -0.0021
  305.0000     -0.0020
  306.0000     -0.0029
  307.0000     -0.0020
  308.0000     -0.0014
  309.0000     -0.0023
  310.0000     -0.0027
  311.0000     -0.0023
  312.0000     -0.0025
  313.0000     -0.0022
  314.0000     -0.0020
  315.0000     -0.0027
  316.0000     -0.0025
  317.0000     -0.0027
  318.0000     -0.0020
  319.0000     -0.0022
  320.0000     -0.0018
  321.0000     -0.0019
  322.0000     -0.0011
  323.0000     -0.0015
  324.0000     -0.0015
  325.0000     -0.0018
  326.0000     -0.0019
  327.0000     -0.0017
  328.0000     -0.0018
  329.0000     -0.0022
  330.0000     -0.0024
  331.0000     -0.0021
  332.0000     -0.0018
  333.0000     -0.0019
  334.0000     -0.0020
  335.0000     -0.0019
  336.0000     -0.0023
  337.0000     -0.0019
  338.0000     -0.0019
  339.0000     -0.0020
  340.0000     -0.0020
  341.0000     -0.0022
  342.0000     -0.0019
  343.0000     -0.0022
  344.0000     -0.0017
  345.0000     -0.0020
  346.0000     -0.0017
  347.0000     -0.0022
  348.0000     -0.0022
  349.0000     -0.0020
  350.0000     -0.0023
  351.0000     -0.0020
  352.0000     -0.0023
  353.0000     -0.0021
  354.0000     -0.0021
  355.0000     -0.0017
  356.0000     -0.0020
  357.0000     -0.0014
  358.0000     -0.0009
  359.0000      0.0009
  360.0000      0.0004
  361.0000     -0.0000
  362.0000      0.0002
  363.0000     -0.0000
  364.0000      0.0008
  365.0000      0.0006
  366.0000      0.0007
  367.0000     -0.0011
  368.0000     -0.0016
  369.0000     -0.0007
  370.0000      0.0010
  371.0000     -0.0002
  372.0000     -0.0011
  373.0000      0.0008
  374.0000     -0.0001
  375.0000      0.0004
  376.0000     -0.0006
  377.0000      0.0003
  378.0000     -0.0003
  379.0000     -0.0005
  380.0000     -0.0002
  381.0000     -0.0002
  382.0000     -0.0003
  383.0000     -0.0002
  384.0000      0.0003
  385.0000     -0.0002
  386.0000     -0.0006
  387.0000     -0.0010
  388.0000     -0.0003
  389.0000     -0.0001
  390.0000      0.0002
  391.0000     -0.0013
  392.0000     -0.0013
  393.0000     -0.0008
  394.0000     -0.0005
  395.0000     -0.0005
  396.0000     -0.0007
  397.0000     -0.0007
  398.0000     -0.0003
  399.0000     -0.0000
  400.0000     -0.0007
  401.0000     -0.0010
  402.0000     -0.0007
  403.0000     -0.0008
  404.0000     -0.0004
  405.0000     -0.0007
  406.0000     -0.0009
  407.0000     -0.0008
  408.0000     -0.0007
  409.0000     -0.0006
  410.0000     -0.0009
  411.0000     -0.0004
  412.0000     -0.0006
  413.0000     -0.0007
  414.0000     -0.0002
  415.0000     -0.0005
  416.0000     -0.0021
  417.0000     -0.0021
  418.0000     -0.0022
  419.0000     -0.0022
  420.0000     -0.0022
  421.0000     -0.0021
  422.0000     -0.0020
  423.0000     -0.0021
  424.0000     -0.0023
  425.0000     -0.0023
  426.0000     -0.0023
  427.0000     -0.0022
  428.0000     -0.0023
  429.0000     -0.0023
  430.0000     -0.0022
  431.0000     -0.0022
  432.0000     -0.0023
  433.0000     -0.0023
  434.0000     -0.0024
  435.0000     -0.0023
  436.0000     -0.0024
  437.0000     -0.0023
  438.0000     -0.0024
  439.0000     -0.0024
  440.0000     -0.0024
  441.0000     -0.0024
  442.0000     -0.0024
  443.0000     -0.0025
  444.0000     -0.0025
  445.0000     -0.0024
  446.0000     -0.0025
  447.0000     -0.0024
  448.0000     -0.0025
  449.0000     -0.0025
  450.0000     -0.0025
  451.0000     -0.0026
  452.0000     -0.0027
  453.0000     -0.0027
  454.0000     -0.0027
  455.0000     -0.0027
  456.0000     -0.0027
  457.0000     -0.0028
  458.0000     -0.0027
  459.0000     -0.0028
  460.0000     -0.0028
  461.0000     -0.0028
  462.0000     -0.0029
  463.0000     -0.0029
  464.0000     -0.0028
  465.0000     -0.0028
  466.0000     -0.0028
  467.0000     -0.0027
  468.0000     -0.0027
  469.0000     -0.0025
  470.0000     -0.0025
  471.0000     -0.0025
  472.0000     -0.0026
  473.0000     -0.0026
  474.0000     -0.0026
  475.0000     -0.0026
  476.0000     -0.0027
  477.0000     -0.0027
  478.0000     -0.0027
  479.0000     -0.0028
  480.0000     -0.0028
  481.0000     -0.0028
  482.0000     -0.0029
  483.0000     -0.0029
  484.0000     -0.0028
  485.0000     -0.0029
  486.0000     -0.0029
  487.0000     -0.0029
  488.0000     -0.0030
  489.0000     -0.0030
  490.0000     -0.0031
  491.0000     -0.0031
  492.0000     -0.0030
  493.0000     -0.0031
  494.0000     -0.0031
  495.0000     -0.0031
  496.0000     -0.0031
  497.0000     -0.0031
  498.0000     -0.0031
  499.0000     -0.0031
  500.0000     -0.0032
  501.0000     -0.0032
  502.0000     -0.0032
  503.0000     -0.0032
  504.0000     -0.0032
  505.0000     -0.0033
  506.0000     -0.0032
  507.0000     -0.0032
  508.0000     -0.0032
  509.0000     -0.0032
  510.0000     -0.0032
  511.0000     -0.0033
  512.0000     -0.0033
  513.0000     -0.0033
  514.0000     -0.0033
  515.0000     -0.0033
  516.0000     -0.0033
  517.0000     -0.0034
  518.0000     -0.0033
  519.0000     -0.0034
  520.0000     -0.0034
  521.0000     -0.0034
  522.0000     -0.0034
  523.0000     -0.0034
  524.0000     -0.0035
  525.0000     -0.0035
  526.0000     -0.0034
  527.0000     -0.0034
  528.0000     -0.0035
  529.0000     -0.0035
  530.0000     -0.0035
  531.0000     -0.0035
  532.0000     -0.0035
  533.0000     -0.0036
  534.0000     -0.0035
  535.0000     -0.0036
  536.0000     -0.0036
  537.0000     -0.0036
  538.0000     -0.0036
  539.0000     -0.0036
  540.0000     -0.0036
  541.0000     -0.0037
  542.0000     -0.0037
  543.0000     -0.0037
  544.0000     -0.0037
  545.0000     -0.0037
  546.0000     -0.0037
  547.0000     -0.0037
  548.0000     -0.0037
  549.0000     -0.0037
  550.0000     -0.0037
  551.0000     -0.0038
  552.0000     -0.0038
  553.0000     -0.0038
  554.0000     -0.0038
  555.0000     -0.0038
  556.0000     -0.0038
  557.0000     -0.0024
  558.0000     -0.0026
  559.0000     -0.0027
  560.0000     -0.0028
  561.0000     -0.0029
  562.0000     -0.0029
  563.0000     -0.0030
  564.0000     -0.0031
  565.0000     -0.0031
  566.0000     -0.0032
  567.0000     -0.0033
  568.0000     -0.0033
  569.0000     -0.0034
  570.0000     -0.0034
  571.0000     -0.0034
  572.0000     -0.0035
  573.0000     -0.0035
  574.0000     -0.0035
  575.0000     -0.0036
  576.0000     -0.0036
  577.0000     -0.0036
  578.0000     -0.0036
  579.0000     -0.0036
  580.0000     -0.0037
  581.0000     -0.0037
  582.0000     -0.0037
  583.0000     -0.0037
  584.0000     -0.0037
  585.0000     -0.0037
  586.0000     -0.0037
  587.0000     -0.0038
  588.0000     -0.0038
  589.0000     -0.0038
  590.0000     -0.0038
  591.0000     -0.0038
  592.0000     -0.0038
  593.0000     -0.0038
  594.0000     -0.0038
  595.0000     -0.0038
  596.0000     -0.0038
  597.0000     -0.0038
  598.0000     -0.0038
  599.0000     -0.0038
  600.0000     -0.0038
  601.0000     -0.0038
  602.0000     -0.0038
  603.0000     -0.0038
  604.0000     -0.0039
  605.0000     -0.0039
  606.0000     -0.0039
  607.0000     -0.0039
  608.0000     -0.0039
  609.0000     -0.0039
  610.0000     -0.0039
  611.0000     -0.0039
  612.0000     -0.0039
  613.0000     -0.0039
  614.0000     -0.0039
  615.0000     -0.0039
  616.0000     -0.0038
  617.0000     -0.0039
  618.0000     -0.0039
  619.0000     -0.0039
  620.0000     -0.0039
  621.0000     -0.0039
  622.0000     -0.0039
  623.0000     -0.0039
  624.0000     -0.0039
  625.0000     -0.0038
  626.0000     -0.0038
  627.0000     -0.0038
  628.0000     -0.0037
  629.0000     -0.0037
  630.0000     -0.0036
  631.0000     -0.0035
  632.0000     -0.0035
  633.0000     -0.0034
  634.0000     -0.0034
  635.0000     -0.0033
  636.0000     -0.0033
  637.0000     -0.0033
  638.0000     -0.0032
  639.0000     -0.0031
  640.0000     -0.0031
  641.0000     -0.0031
  642.0000     -0.0030
  643.0000     -0.0030
  644.0000     -0.0030
  645.0000     -0.0030
  646.0000     -0.0029
  647.0000     -0.0029
  648.0000     -0.0029
  649.0000     -0.0028
  650.0000     -0.0028
  651.0000     -0.0028
  652.0000     -0.0028
  653.0000     -0.0027
  654.0000     -0.0027
  655.0000     -0.0027
  656.0000     -0.0027
  657.0000     -0.0026
  658.0000     -0.0027
  659.0000     -0.0026
  660.0000     -0.0026
  661.0000     -0.0026
  662.0000     -0.0026
  663.0000     -0.0025
  664.0000     -0.0025
  665.0000     -0.0025
  666.0000     -0.0025
  667.0000     -0.0025
  668.0000     -0.0025
  669.0000     -0.0025
  670.0000     -0.0025
  671.0000     -0.0024
  672.0000     -0.0025
  673.0000     -0.0025
  674.0000     -0.0024
  675.0000     -0.0024
  676.0000     -0.0024
  677.0000     -0.0024
  678.0000     -0.0024
  679.0000     -0.0024
  680.0000     -0.0023
  681.0000     -0.0024
  682.0000     -0.0024
  683.0000     -0.0024
  684.0000     -0.0023
  685.0000     -0.0023
  686.0000     -0.0023
  687.0000     -0.0023
  688.0000     -0.0023
  689.0000     -0.0023
  690.0000     -0.0023
  691.0000     -0.0023
  692.0000     -0.0023
  693.0000     -0.0023
  694.0000     -0.0023
  695.0000     -0.0023
  696.0000     -0.0023
  697.0000     -0.0023
  698.0000     -0.0023
  699.0000     -0.0022
  700.0000     -0.0022
  701.0000     -0.0022
  702.0000     -0.0022
  703.0000     -0.0022
  704.0000     -0.0022
  705.0000     -0.0022
  706.0000     -0.0022
  707.0000     -0.0022
  708.0000     -0.0022
  709.0000     -0.0022
  710.0000     -0.0022
  711.0000     -0.0022
  712.0000     -0.0022
  713.0000     -0.0022
  714.0000     -0.0021
  715.0000     -0.0022
  716.0000     -0.0022
  717.0000     -0.0022
  718.0000     -0.0022
  719.0000     -0.0022
  720.0000     -0.0022
  721.0000     -0.0022
  722.0000     -0.0022
  723.0000     -0.0022
  724.0000     -0.0022
  725.0000     -0.0022
  726.0000     -0.0021
  727.0000     -0.0021
  728.0000     -0.0021
  729.0000     -0.0021
  730.0000     -0.0021
  731.0000     -0.0021
  732.0000     -0.0021
  733.0000     -0.0021
  734.0000     -0.0021
  735.0000     -0.0022
  736.0000     -0.0035
  737.0000     -0.0035
  738.0000     -0.0035
  739.0000     -0.0035
  740.0000     -0.0036
  741.0000     -0.0036
  742.0000     -0.0036
  743.0000     -0.0036
  744.0000     -0.0037
  745.0000     -0.0037
  746.0000     -0.0038
  747.0000     -0.0038
  748.0000     -0.0038
  749.0000     -0.0038
  750.0000     -0.0038
  751.0000     -0.0038
  752.0000     -0.0039
  753.0000     -0.0039
  754.0000     -0.0039
  755.0000     -0.0038
  756.0000     -0.0039
  757.0000     -0.0039
  758.0000     -0.0039
  759.0000     -0.0040
  760.0000     -0.0039
  761.0000     -0.0040
  762.0000     -0.0040
  763.0000     -0.0040
  764.0000     -0.0040
  765.0000     -0.0040
  766.0000     -0.0040
  767.0000     -0.0040
  768.0000     -0.0041
  769.0000     -0.0040
  770.0000     -0.0041
  771.0000     -0.0040
  772.0000     -0.0041
  773.0000     -0.0041
  774.0000     -0.0041
  775.0000     -0.0041
  776.0000     -0.0042
  777.0000     -0.0042
  778.0000     -0.0042
  779.0000     -0.0042
  780.0000     -0.0042
  781.0000     -0.0042
  782.0000     -0.0043
  783.0000     -0.0043
  784.0000     -0.0043
  785.0000     -0.0043
  786.0000     -0.0043
  787.0000     -0.0042
  788.0000     -0.0043
  789.0000     -0.0043
  790.0000     -0.0043
  791.0000     -0.0043
  792.0000     -0.0043
  793.0000     -0.0043
  794.0000     -0.0043
  795.0000     -0.0043
  796.0000     -0.0044
  797.0000     -0.0044
  798.0000     -0.0044
  799.0000     -0.0045
  800.0000     -0.0045
