Start Wavelength:    200.0000
End Wavelength:    800.0000
Read Mode:  ABS
Read Average:      0.1000
Nanometer Interval:      1.0000
Time:      0.0000

  200.0000      1.1338
  201.0000      1.0935
  202.0000      1.0795
  203.0000      1.0644
  204.0000      1.0305
  205.0000      1.0130
  206.0000      0.9871
  207.0000      0.9678
  208.0000      0.9436
  209.0000      0.9135
  210.0000      0.8887
  211.0000      0.8614
  212.0000      0.8339
  213.0000      0.7998
  214.0000      0.7704
  215.0000      0.7403
  216.0000      0.7109
  217.0000      0.6785
  218.0000      0.6504
  219.0000      0.6227
  220.0000      0.5967
  221.0000      0.5702
  222.0000      0.5457
  223.0000      0.5250
  224.0000      0.5040
  225.0000      0.4832
  226.0000      0.4665
  227.0000      0.4511
  228.0000      0.4370
  229.0000      0.4215
  230.0000      0.4104
  231.0000      0.3997
  232.0000      0.3899
  233.0000      0.3804
  234.0000      0.3726
  235.0000      0.3651
  236.0000      0.3591
  237.0000      0.3527
  238.0000      0.3471
  239.0000      0.3424
  240.0000      0.3380
  241.0000      0.3336
  242.0000      0.3293
  243.0000      0.3262
  244.0000      0.3229
  245.0000      0.3193
  246.0000      0.3169
  247.0000      0.3143
  248.0000      0.3112
  249.0000      0.3091
  250.0000      0.3071
  251.0000      0.3047
  252.0000      0.3029
  253.0000      0.3011
  254.0000      0.2990
  255.0000      0.2972
  256.0000      0.2957
  257.0000      0.2945
  258.0000      0.2918
  259.0000      0.2902
  260.0000      0.2885
  261.0000      0.2865
  262.0000      0.2846
  263.0000      0.2831
  264.0000      0.2806
  265.0000      0.2792
  266.0000      0.2778
  267.0000      0.2751
  268.0000      0.2734
  269.0000      0.2710
  270.0000      0.2690
  271.0000      0.2661
  272.0000      0.2649
  273.0000      0.2633
  274.0000      0.2602
  275.0000      0.2581
  276.0000      0.2560
  277.0000      0.2535
  278.0000      0.2518
  279.0000      0.2497
  280.0000      0.2464
  281.0000      0.2440
  282.0000      0.2419
  283.0000      0.2399
  284.0000      0.2364
  285.0000      0.2340
  286.0000      0.2310
  287.0000      0.2289
  288.0000      0.2260
  289.0000      0.2238
  290.0000      0.2200
  291.0000      0.2175
  292.0000      0.2152
  293.0000      0.2127
  294.0000      0.2107
  295.0000      0.2084
  296.0000      0.2055
  297.0000      0.2033
  298.0000      0.2007
  299.0000      0.1983
  300.0000      0.1965
  301.0000      0.1943
  302.0000      0.1919
  303.0000      0.1900
  304.0000      0.1881
  305.0000      0.1856
  306.0000      0.1834
  307.0000      0.1820
  308.0000      0.1802
  309.0000      0.1783
  310.0000      0.1764
  311.0000      0.1746
  312.0000      0.1723
  313.0000      0.1716
  314.0000      0.1703
  315.0000      0.1670
  316.0000      0.1660
  317.0000      0.1647
  318.0000      0.1624
  319.0000      0.1610
  320.0000      0.1601
  321.0000      0.1591
  322.0000      0.1566
  323.0000      0.1550
  324.0000      0.1539
  325.0000      0.1518
  326.0000      0.1503
  327.0000      0.1492
  328.0000      0.1473
  329.0000      0.1465
  330.0000      0.1447
  331.0000      0.1434
  332.0000      0.1419
  333.0000      0.1411
  334.0000      0.1397
  335.0000      0.1383
  336.0000      0.1370
  337.0000      0.1360
  338.0000      0.1350
  339.0000      0.1336
  340.0000      0.1330
  341.0000      0.1313
  342.0000      0.1302
  343.0000      0.1286
  344.0000      0.1278
  345.0000      0.1269
  346.0000      0.1263
  347.0000      0.1245
  348.0000      0.1236
  349.0000      0.1228
  350.0000      0.1216
  351.0000      0.1210
  352.0000      0.1199
  353.0000      0.1186
  354.0000      0.1175
  355.0000      0.1169
  356.0000      0.1161
  357.0000      0.1158
  358.0000      0.1147
  359.0000      0.1147
  360.0000      0.1143
  361.0000      0.1122
  362.0000      0.1118
  363.0000      0.1104
  364.0000      0.1095
  365.0000      0.1097
  366.0000      0.1081
  367.0000      0.1063
  368.0000      0.1056
  369.0000      0.1048
  370.0000      0.1047
  371.0000      0.1043
  372.0000      0.1024
  373.0000      0.1013
  374.0000      0.1013
  375.0000      0.1009
  376.0000      0.0993
  377.0000      0.0994
  378.0000      0.0982
  379.0000      0.0973
  380.0000      0.0973
  381.0000      0.0957
  382.0000      0.0948
  383.0000      0.0942
  384.0000      0.0938
  385.0000      0.0930
  386.0000      0.0919
  387.0000      0.0902
  388.0000      0.0905
  389.0000      0.0908
  390.0000      0.0891
  391.0000      0.0883
  392.0000      0.0874
  393.0000      0.0865
  394.0000      0.0867
  395.0000      0.0867
  396.0000      0.0850
  397.0000      0.0849
  398.0000      0.0842
  399.0000      0.0837
  400.0000      0.0834
  401.0000      0.0826
  402.0000      0.0813
  403.0000      0.0815
  404.0000      0.0809
  405.0000      0.0799
  406.0000      0.0792
  407.0000      0.0791
  408.0000      0.0784
  409.0000      0.0781
  410.0000      0.0778
  411.0000      0.0767
  412.0000      0.0766
  413.0000      0.0762
  414.0000      0.0761
  415.0000      0.0761
  416.0000      0.0743
  417.0000      0.0738
  418.0000      0.0734
  419.0000      0.0729
  420.0000      0.0724
  421.0000      0.0720
  422.0000      0.0716
  423.0000      0.0711
  424.0000      0.0707
  425.0000      0.0702
  426.0000      0.0697
  427.0000      0.0693
  428.0000      0.0688
  429.0000      0.0684
  430.0000      0.0680
  431.0000      0.0675
  432.0000      0.0671
  433.0000      0.0666
  434.0000      0.0663
  435.0000      0.0659
  436.0000      0.0655
  437.0000      0.0652
  438.0000      0.0647
  439.0000      0.0643
  440.0000      0.0639
  441.0000      0.0636
  442.0000      0.0632
  443.0000      0.0628
  444.0000      0.0625
  445.0000      0.0620
  446.0000      0.0616
  447.0000      0.0613
  448.0000      0.0609
  449.0000      0.0605
  450.0000      0.0601
  451.0000      0.0597
  452.0000      0.0593
  453.0000      0.0591
  454.0000      0.0586
  455.0000      0.0583
  456.0000      0.0580
  457.0000      0.0576
  458.0000      0.0573
  459.0000      0.0570
  460.0000      0.0568
  461.0000      0.0564
  462.0000      0.0562
  463.0000      0.0560
  464.0000      0.0559
  465.0000      0.0556
  466.0000      0.0554
  467.0000      0.0553
  468.0000      0.0551
  469.0000      0.0550
  470.0000      0.0548
  471.0000      0.0544
  472.0000      0.0543
  473.0000      0.0540
  474.0000      0.0538
  475.0000      0.0535
  476.0000      0.0532
  477.0000      0.0530
  478.0000      0.0528
  479.0000      0.0525
  480.0000      0.0522
  481.0000      0.0520
  482.0000      0.0517
  483.0000      0.0515
  484.0000      0.0513
  485.0000      0.0511
  486.0000      0.0508
  487.0000      0.0506
  488.0000      0.0503
  489.0000      0.0501
  490.0000      0.0498
  491.0000      0.0496
  492.0000      0.0494
  493.0000      0.0491
  494.0000      0.0489
  495.0000      0.0486
  496.0000      0.0484
  497.0000      0.0482
  498.0000      0.0482
  499.0000      0.0479
  500.0000      0.0478
  501.0000      0.0476
  502.0000      0.0476
  503.0000      0.0474
  504.0000      0.0473
  505.0000      0.0472
  506.0000      0.0470
  507.0000      0.0468
  508.0000      0.0467
  509.0000      0.0465
  510.0000      0.0463
  511.0000      0.0461
  512.0000      0.0459
  513.0000      0.0457
  514.0000      0.0456
  515.0000      0.0454
  516.0000      0.0453
  517.0000      0.0451
  518.0000      0.0450
  519.0000      0.0448
  520.0000      0.0447
  521.0000      0.0445
  522.0000      0.0444
  523.0000      0.0442
  524.0000      0.0440
  525.0000      0.0438
  526.0000      0.0436
  527.0000      0.0435
  528.0000      0.0433
  529.0000      0.0431
  530.0000      0.0429
  531.0000      0.0427
  532.0000      0.0425
  533.0000      0.0423
  534.0000      0.0421
  535.0000      0.0419
  536.0000      0.0418
  537.0000      0.0416
  538.0000      0.0414
  539.0000      0.0413
  540.0000      0.0412
  541.0000      0.0410
  542.0000      0.0409
  543.0000      0.0408
  544.0000      0.0407
  545.0000      0.0405
  546.0000      0.0403
  547.0000      0.0402
  548.0000      0.0401
  549.0000      0.0399
  550.0000      0.0397
  551.0000      0.0394
  552.0000      0.0393
  553.0000      0.0390
  554.0000      0.0389
  555.0000      0.0386
  556.0000      0.0384
  557.0000      0.0389
  558.0000      0.0386
  559.0000      0.0384
  560.0000      0.0383
  561.0000      0.0381
  562.0000      0.0380
  563.0000      0.0378
  564.0000      0.0376
  565.0000      0.0375
  566.0000      0.0373
  567.0000      0.0372
  568.0000      0.0370
  569.0000      0.0369
  570.0000      0.0368
  571.0000      0.0367
  572.0000      0.0366
  573.0000      0.0364
  574.0000      0.0363
  575.0000      0.0362
  576.0000      0.0361
  577.0000      0.0359
  578.0000      0.0357
  579.0000      0.0355
  580.0000      0.0353
  581.0000      0.0352
  582.0000      0.0350
  583.0000      0.0349
  584.0000      0.0347
  585.0000      0.0346
  586.0000      0.0345
  587.0000      0.0343
  588.0000      0.0342
  589.0000      0.0341
  590.0000      0.0341
  591.0000      0.0341
  592.0000      0.0340
  593.0000      0.0339
  594.0000      0.0338
  595.0000      0.0337
  596.0000      0.0336
  597.0000      0.0336
  598.0000      0.0335
  599.0000      0.0334
  600.0000      0.0333
  601.0000      0.0332
  602.0000      0.0332
  603.0000      0.0331
  604.0000      0.0331
  605.0000      0.0330
  606.0000      0.0330
  607.0000      0.0330
  608.0000      0.0330
  609.0000      0.0330
  610.0000      0.0329
  611.0000      0.0329
  612.0000      0.0329
  613.0000      0.0329
  614.0000      0.0328
  615.0000      0.0329
  616.0000      0.0328
  617.0000      0.0328
  618.0000      0.0328
  619.0000      0.0328
  620.0000      0.0327
  621.0000      0.0327
  622.0000      0.0328
  623.0000      0.0327
  624.0000      0.0328
  625.0000      0.0329
  626.0000      0.0329
  627.0000      0.0329
  628.0000      0.0329
  629.0000      0.0329
  630.0000      0.0330
  631.0000      0.0329
  632.0000      0.0329
  633.0000      0.0329
  634.0000      0.0328
  635.0000      0.0328
  636.0000      0.0328
  637.0000      0.0328
  638.0000      0.0329
  639.0000      0.0329
  640.0000      0.0329
  641.0000      0.0329
  642.0000      0.0329
  643.0000      0.0330
  644.0000      0.0330
  645.0000      0.0331
  646.0000      0.0331
  647.0000      0.0331
  648.0000      0.0331
  649.0000      0.0332
  650.0000      0.0332
  651.0000      0.0332
  652.0000      0.0332
  653.0000      0.0333
  654.0000      0.0333
  655.0000      0.0334
  656.0000      0.0334
  657.0000      0.0334
  658.0000      0.0334
  659.0000      0.0335
  660.0000      0.0335
  661.0000      0.0335
  662.0000      0.0336
  663.0000      0.0336
  664.0000      0.0337
  665.0000      0.0337
  666.0000      0.0338
  667.0000      0.0338
  668.0000      0.0338
  669.0000      0.0338
  670.0000      0.0338
  671.0000      0.0338
  672.0000      0.0338
  673.0000      0.0338
  674.0000      0.0339
  675.0000      0.0339
  676.0000      0.0340
  677.0000      0.0340
  678.0000      0.0340
  679.0000      0.0340
  680.0000      0.0341
  681.0000      0.0341
  682.0000      0.0340
  683.0000      0.0340
  684.0000      0.0340
  685.0000      0.0340
  686.0000      0.0339
  687.0000      0.0338
  688.0000      0.0338
  689.0000      0.0338
  690.0000      0.0337
  691.0000      0.0337
  692.0000      0.0336
  693.0000      0.0335
  694.0000      0.0335
  695.0000      0.0335
  696.0000      0.0334
  697.0000      0.0334
  698.0000      0.0333
  699.0000      0.0334
  700.0000      0.0334
  701.0000      0.0334
  702.0000      0.0334
  703.0000      0.0335
  704.0000      0.0335
  705.0000      0.0335
  706.0000      0.0336
  707.0000      0.0335
  708.0000      0.0335
  709.0000      0.0336
  710.0000      0.0336
  711.0000      0.0336
  712.0000      0.0336
  713.0000      0.0336
  714.0000      0.0337
  715.0000      0.0336
  716.0000      0.0337
  717.0000      0.0337
  718.0000      0.0337
  719.0000      0.0338
  720.0000      0.0337
  721.0000      0.0338
  722.0000      0.0338
  723.0000      0.0338
  724.0000      0.0338
  725.0000      0.0339
  726.0000      0.0339
  727.0000      0.0339
  728.0000      0.0339
  729.0000      0.0339
  730.0000      0.0338
  731.0000      0.0337
  732.0000      0.0336
  733.0000      0.0335
  734.0000      0.0334
  735.0000      0.0334
  736.0000      0.0326
  737.0000      0.0326
  738.0000      0.0325
  739.0000      0.0325
  740.0000      0.0324
  741.0000      0.0324
  742.0000      0.0324
  743.0000      0.0323
  744.0000      0.0323
  745.0000      0.0322
  746.0000      0.0321
  747.0000      0.0321
  748.0000      0.0321
  749.0000      0.0321
  750.0000      0.0321
  751.0000      0.0320
  752.0000      0.0321
  753.0000      0.0320
  754.0000      0.0321
  755.0000      0.0321
  756.0000      0.0321
  757.0000      0.0321
  758.0000      0.0320
  759.0000      0.0320
  760.0000      0.0321
  761.0000      0.0321
  762.0000      0.0320
  763.0000      0.0321
  764.0000      0.0321
  765.0000      0.0321
  766.0000      0.0321
  767.0000      0.0321
  768.0000      0.0321
  769.0000      0.0322
  770.0000      0.0322
  771.0000      0.0322
  772.0000      0.0322
  773.0000      0.0322
  774.0000      0.0321
  775.0000      0.0322
  776.0000      0.0321
  777.0000      0.0321
  778.0000      0.0322
  779.0000      0.0321
  780.0000      0.0321
  781.0000      0.0320
  782.0000      0.0319
  783.0000      0.0319
  784.0000      0.0319
  785.0000      0.0318
  786.0000      0.0318
  787.0000      0.0318
  788.0000      0.0317
  789.0000      0.0317
  790.0000      0.0316
  791.0000      0.0315
  792.0000      0.0314
  793.0000      0.0314
  794.0000      0.0313
  795.0000      0.0313
  796.0000      0.0312
  797.0000      0.0311
  798.0000      0.0310
  799.0000      0.0309
  800.0000      0.0309
