Start Wavelength:    200.0000
End Wavelength:    800.0000
Read Mode:  ABS
Read Average:      0.1000
Nanometer Interval:      1.0000
Time:      0.0000

  200.0000      0.6391
  201.0000      0.5719
  202.0000      0.5413
  203.0000      0.5146
  204.0000      0.4873
  205.0000      0.4678
  206.0000      0.4519
  207.0000      0.4358
  208.0000      0.4215
  209.0000      0.4092
  210.0000      0.3979
  211.0000      0.3875
  212.0000      0.3792
  213.0000      0.3690
  214.0000      0.3607
  215.0000      0.3538
  216.0000      0.3468
  217.0000      0.3392
  218.0000      0.3330
  219.0000      0.3276
  220.0000      0.3217
  221.0000      0.3155
  222.0000      0.3107
  223.0000      0.3060
  224.0000      0.3006
  225.0000      0.2959
  226.0000      0.2925
  227.0000      0.2878
  228.0000      0.2836
  229.0000      0.2795
  230.0000      0.2760
  231.0000      0.2718
  232.0000      0.2690
  233.0000      0.2652
  234.0000      0.2619
  235.0000      0.2587
  236.0000      0.2560
  237.0000      0.2528
  238.0000      0.2502
  239.0000      0.2481
  240.0000      0.2456
  241.0000      0.2433
  242.0000      0.2412
  243.0000      0.2394
  244.0000      0.2373
  245.0000      0.2359
  246.0000      0.2343
  247.0000      0.2323
  248.0000      0.2305
  249.0000      0.2293
  250.0000      0.2276
  251.0000      0.2259
  252.0000      0.2246
  253.0000      0.2233
  254.0000      0.2214
  255.0000      0.2203
  256.0000      0.2188
  257.0000      0.2172
  258.0000      0.2157
  259.0000      0.2138
  260.0000      0.2125
  261.0000      0.2110
  262.0000      0.2094
  263.0000      0.2075
  264.0000      0.2058
  265.0000      0.2046
  266.0000      0.2027
  267.0000      0.2009
  268.0000      0.1998
  269.0000      0.1978
  270.0000      0.1959
  271.0000      0.1937
  272.0000      0.1922
  273.0000      0.1905
  274.0000      0.1881
  275.0000      0.1865
  276.0000      0.1837
  277.0000      0.1820
  278.0000      0.1797
  279.0000      0.1775
  280.0000      0.1754
  281.0000      0.1731
  282.0000      0.1708
  283.0000      0.1681
  284.0000      0.1661
  285.0000      0.1634
  286.0000      0.1611
  287.0000      0.1584
  288.0000      0.1556
  289.0000      0.1533
  290.0000      0.1501
  291.0000      0.1478
  292.0000      0.1446
  293.0000      0.1420
  294.0000      0.1393
  295.0000      0.1369
  296.0000      0.1349
  297.0000      0.1321
  298.0000      0.1306
  299.0000      0.1283
  300.0000      0.1264
  301.0000      0.1243
  302.0000      0.1230
  303.0000      0.1213
  304.0000      0.1192
  305.0000      0.1186
  306.0000      0.1161
  307.0000      0.1145
  308.0000      0.1135
  309.0000      0.1121
  310.0000      0.1104
  311.0000      0.1087
  312.0000      0.1087
  313.0000      0.1068
  314.0000      0.1052
  315.0000      0.1051
  316.0000      0.1044
  317.0000      0.1023
  318.0000      0.1013
  319.0000      0.1010
  320.0000      0.0993
  321.0000      0.0990
  322.0000      0.0986
  323.0000      0.0979
  324.0000      0.0973
  325.0000      0.0968
  326.0000      0.0953
  327.0000      0.0945
  328.0000      0.0935
  329.0000      0.0931
  330.0000      0.0920
  331.0000      0.0918
  332.0000      0.0910
  333.0000      0.0900
  334.0000      0.0890
  335.0000      0.0892
  336.0000      0.0885
  337.0000      0.0867
  338.0000      0.0865
  339.0000      0.0861
  340.0000      0.0854
  341.0000      0.0847
  342.0000      0.0841
  343.0000      0.0837
  344.0000      0.0826
  345.0000      0.0817
  346.0000      0.0813
  347.0000      0.0810
  348.0000      0.0805
  349.0000      0.0799
  350.0000      0.0792
  351.0000      0.0789
  352.0000      0.0786
  353.0000      0.0775
  354.0000      0.0770
  355.0000      0.0773
  356.0000      0.0764
  357.0000      0.0793
  358.0000      0.0750
  359.0000      0.0748
  360.0000      0.0741
  361.0000      0.0751
  362.0000      0.0754
  363.0000      0.0743
  364.0000      0.0740
  365.0000      0.0734
  366.0000      0.0714
  367.0000      0.0736
  368.0000      0.0723
  369.0000      0.0723
  370.0000      0.0719
  371.0000      0.0712
  372.0000      0.0700
  373.0000      0.0702
  374.0000      0.0694
  375.0000      0.0686
  376.0000      0.0692
  377.0000      0.0699
  378.0000      0.0690
  379.0000      0.0682
  380.0000      0.0687
  381.0000      0.0680
  382.0000      0.0670
  383.0000      0.0675
  384.0000      0.0678
  385.0000      0.0671
  386.0000      0.0656
  387.0000      0.0667
  388.0000      0.0658
  389.0000      0.0653
  390.0000      0.0656
  391.0000      0.0644
  392.0000      0.0647
  393.0000      0.0642
  394.0000      0.0639
  395.0000      0.0636
  396.0000      0.0637
  397.0000      0.0635
  398.0000      0.0626
  399.0000      0.0623
  400.0000      0.0627
  401.0000      0.0617
  402.0000      0.0613
  403.0000      0.0614
  404.0000      0.0615
  405.0000      0.0607
  406.0000      0.0600
  407.0000      0.0604
  408.0000      0.0604
  409.0000      0.0591
  410.0000      0.0593
  411.0000      0.0597
  412.0000      0.0590
  413.0000      0.0587
  414.0000      0.0584
  415.0000      0.0585
  416.0000      0.0578
  417.0000      0.0577
  418.0000      0.0574
  419.0000      0.0575
  420.0000      0.0572
  421.0000      0.0569
  422.0000      0.0567
  423.0000      0.0565
  424.0000      0.0561
  425.0000      0.0559
  426.0000      0.0558
  427.0000      0.0556
  428.0000      0.0553
  429.0000      0.0551
  430.0000      0.0549
  431.0000      0.0545
  432.0000      0.0542
  433.0000      0.0541
  434.0000      0.0538
  435.0000      0.0535
  436.0000      0.0532
  437.0000      0.0529
  438.0000      0.0525
  439.0000      0.0523
  440.0000      0.0520
  441.0000      0.0516
  442.0000      0.0514
  443.0000      0.0511
  444.0000      0.0508
  445.0000      0.0506
  446.0000      0.0501
  447.0000      0.0498
  448.0000      0.0494
  449.0000      0.0490
  450.0000      0.0486
  451.0000      0.0482
  452.0000      0.0479
  453.0000      0.0475
  454.0000      0.0471
  455.0000      0.0469
  456.0000      0.0465
  457.0000      0.0462
  458.0000      0.0459
  459.0000      0.0457
  460.0000      0.0454
  461.0000      0.0452
  462.0000      0.0450
  463.0000      0.0449
  464.0000      0.0447
  465.0000      0.0446
  466.0000      0.0445
  467.0000      0.0443
  468.0000      0.0441
  469.0000      0.0439
  470.0000      0.0437
  471.0000      0.0435
  472.0000      0.0432
  473.0000      0.0429
  474.0000      0.0428
  475.0000      0.0426
  476.0000      0.0424
  477.0000      0.0421
  478.0000      0.0420
  479.0000      0.0418
  480.0000      0.0416
  481.0000      0.0414
  482.0000      0.0412
  483.0000      0.0412
  484.0000      0.0410
  485.0000      0.0410
  486.0000      0.0409
  487.0000      0.0410
  488.0000      0.0412
  489.0000      0.0414
  490.0000      0.0416
  491.0000      0.0417
  492.0000      0.0417
  493.0000      0.0417
  494.0000      0.0417
  495.0000      0.0417
  496.0000      0.0417
  497.0000      0.0417
  498.0000      0.0417
  499.0000      0.0416
  500.0000      0.0415
  501.0000      0.0414
  502.0000      0.0413
  503.0000      0.0412
  504.0000      0.0410
  505.0000      0.0408
  506.0000      0.0407
  507.0000      0.0406
  508.0000      0.0403
  509.0000      0.0402
  510.0000      0.0400
  511.0000      0.0399
  512.0000      0.0399
  513.0000      0.0398
  514.0000      0.0398
  515.0000      0.0398
  516.0000      0.0397
  517.0000      0.0396
  518.0000      0.0394
  519.0000      0.0393
  520.0000      0.0392
  521.0000      0.0392
  522.0000      0.0390
  523.0000      0.0389
  524.0000      0.0388
  525.0000      0.0387
  526.0000      0.0386
  527.0000      0.0385
  528.0000      0.0384
  529.0000      0.0382
  530.0000      0.0381
  531.0000      0.0380
  532.0000      0.0379
  533.0000      0.0379
  534.0000      0.0378
  535.0000      0.0378
  536.0000      0.0377
  537.0000      0.0376
  538.0000      0.0375
  539.0000      0.0375
  540.0000      0.0375
  541.0000      0.0375
  542.0000      0.0374
  543.0000      0.0374
  544.0000      0.0373
  545.0000      0.0372
  546.0000      0.0371
  547.0000      0.0370
  548.0000      0.0370
  549.0000      0.0370
  550.0000      0.0370
  551.0000      0.0370
  552.0000      0.0371
  553.0000      0.0371
  554.0000      0.0372
  555.0000      0.0373
  556.0000      0.0373
  557.0000      0.0359
  558.0000      0.0358
  559.0000      0.0358
  560.0000      0.0357
  561.0000      0.0356
  562.0000      0.0354
  563.0000      0.0353
  564.0000      0.0352
  565.0000      0.0351
  566.0000      0.0350
  567.0000      0.0349
  568.0000      0.0348
  569.0000      0.0347
  570.0000      0.0345
  571.0000      0.0344
  572.0000      0.0342
  573.0000      0.0340
  574.0000      0.0338
  575.0000      0.0336
  576.0000      0.0333
  577.0000      0.0332
  578.0000      0.0329
  579.0000      0.0328
  580.0000      0.0326
  581.0000      0.0325
  582.0000      0.0324
  583.0000      0.0322
  584.0000      0.0321
  585.0000      0.0320
  586.0000      0.0319
  587.0000      0.0318
  588.0000      0.0318
  589.0000      0.0318
  590.0000      0.0318
  591.0000      0.0318
  592.0000      0.0318
  593.0000      0.0318
  594.0000      0.0319
  595.0000      0.0319
  596.0000      0.0319
  597.0000      0.0319
  598.0000      0.0320
  599.0000      0.0320
  600.0000      0.0321
  601.0000      0.0321
  602.0000      0.0321
  603.0000      0.0322
  604.0000      0.0322
  605.0000      0.0322
  606.0000      0.0322
  607.0000      0.0323
  608.0000      0.0323
  609.0000      0.0323
  610.0000      0.0324
  611.0000      0.0324
  612.0000      0.0325
  613.0000      0.0324
  614.0000      0.0322
  615.0000      0.0322
  616.0000      0.0323
  617.0000      0.0325
  618.0000      0.0325
  619.0000      0.0325
  620.0000      0.0326
  621.0000      0.0327
  622.0000      0.0327
  623.0000      0.0326
  624.0000      0.0325
  625.0000      0.0325
  626.0000      0.0325
  627.0000      0.0324
  628.0000      0.0323
  629.0000      0.0323
  630.0000      0.0321
  631.0000      0.0320
  632.0000      0.0320
  633.0000      0.0320
  634.0000      0.0320
  635.0000      0.0319
  636.0000      0.0319
  637.0000      0.0318
  638.0000      0.0317
  639.0000      0.0317
  640.0000      0.0316
  641.0000      0.0314
  642.0000      0.0314
  643.0000      0.0313
  644.0000      0.0311
  645.0000      0.0309
  646.0000      0.0306
  647.0000      0.0304
  648.0000      0.0302
  649.0000      0.0300
  650.0000      0.0298
  651.0000      0.0296
  652.0000      0.0295
  653.0000      0.0293
  654.0000      0.0292
  655.0000      0.0291
  656.0000      0.0290
  657.0000      0.0289
  658.0000      0.0287
  659.0000      0.0287
  660.0000      0.0287
  661.0000      0.0288
  662.0000      0.0288
  663.0000      0.0287
  664.0000      0.0287
  665.0000      0.0287
  666.0000      0.0288
  667.0000      0.0288
  668.0000      0.0286
  669.0000      0.0286
  670.0000      0.0286
  671.0000      0.0286
  672.0000      0.0286
  673.0000      0.0285
  674.0000      0.0284
  675.0000      0.0284
  676.0000      0.0284
  677.0000      0.0284
  678.0000      0.0283
  679.0000      0.0283
  680.0000      0.0283
  681.0000      0.0282
  682.0000      0.0281
  683.0000      0.0281
  684.0000      0.0280
  685.0000      0.0280
  686.0000      0.0278
  687.0000      0.0277
  688.0000      0.0277
  689.0000      0.0277
  690.0000      0.0276
  691.0000      0.0276
  692.0000      0.0275
  693.0000      0.0275
  694.0000      0.0275
  695.0000      0.0274
  696.0000      0.0273
  697.0000      0.0272
  698.0000      0.0272
  699.0000      0.0272
  700.0000      0.0272
  701.0000      0.0271
  702.0000      0.0270
  703.0000      0.0271
  704.0000      0.0272
  705.0000      0.0271
  706.0000      0.0270
  707.0000      0.0270
  708.0000      0.0270
  709.0000      0.0271
  710.0000      0.0271
  711.0000      0.0271
  712.0000      0.0270
  713.0000      0.0270
  714.0000      0.0270
  715.0000      0.0271
  716.0000      0.0270
  717.0000      0.0270
  718.0000      0.0270
  719.0000      0.0270
  720.0000      0.0270
  721.0000      0.0269
  722.0000      0.0270
  723.0000      0.0269
  724.0000      0.0269
  725.0000      0.0268
  726.0000      0.0268
  727.0000      0.0267
  728.0000      0.0267
  729.0000      0.0265
  730.0000      0.0263
  731.0000      0.0262
  732.0000      0.0261
  733.0000      0.0260
  734.0000      0.0257
  735.0000      0.0256
  736.0000      0.0252
  737.0000      0.0251
  738.0000      0.0252
  739.0000      0.0253
  740.0000      0.0254
  741.0000      0.0254
  742.0000      0.0254
  743.0000      0.0255
  744.0000      0.0256
  745.0000      0.0256
  746.0000      0.0257
  747.0000      0.0257
  748.0000      0.0257
  749.0000      0.0258
  750.0000      0.0259
  751.0000      0.0259
  752.0000      0.0259
  753.0000      0.0259
  754.0000      0.0260
  755.0000      0.0261
  756.0000      0.0261
  757.0000      0.0262
  758.0000      0.0263
  759.0000      0.0263
  760.0000      0.0263
  761.0000      0.0264
  762.0000      0.0263
  763.0000      0.0263
  764.0000      0.0263
  765.0000      0.0261
  766.0000      0.0261
  767.0000      0.0261
  768.0000      0.0260
  769.0000      0.0259
  770.0000      0.0258
  771.0000      0.0258
  772.0000      0.0256
  773.0000      0.0255
  774.0000      0.0254
  775.0000      0.0252
  776.0000      0.0251
  777.0000      0.0249
  778.0000      0.0248
  779.0000      0.0247
  780.0000      0.0246
  781.0000      0.0244
  782.0000      0.0244
  783.0000      0.0243
  784.0000      0.0242
  785.0000      0.0241
  786.0000      0.0240
  787.0000      0.0239
  788.0000      0.0238
  789.0000      0.0236
  790.0000      0.0235
  791.0000      0.0235
  792.0000      0.0233
  793.0000      0.0232
  794.0000      0.0232
  795.0000      0.0231
  796.0000      0.0230
  797.0000      0.0230
  798.0000      0.0229
  799.0000      0.0229
  800.0000      0.0227
