Start Wavelength:    200.0000
End Wavelength:    800.0000
Read Mode:  ABS
Read Average:      0.1000
Nanometer Interval:      1.0000
Time:      0.0000

  200.0000     -0.0012
  201.0000     -0.0000
  202.0000      0.0002
  203.0000      0.0006
  204.0000     -0.0000
  205.0000      0.0002
  206.0000      0.0003
  207.0000      0.0001
  208.0000      0.0001
  209.0000      0.0003
  210.0000      0.0002
  211.0000      0.0005
  212.0000     -0.0000
  213.0000     -0.0002
  214.0000      0.0005
  215.0000      0.0003
  216.0000     -0.0000
  217.0000      0.0005
  218.0000      0.0011
  219.0000      0.0003
  220.0000      0.0005
  221.0000      0.0007
  222.0000      0.0006
  223.0000      0.0007
  224.0000      0.0003
  225.0000      0.0004
  226.0000      0.0006
  227.0000      0.0005
  228.0000      0.0004
  229.0000      0.0004
  230.0000      0.0010
  231.0000      0.0006
  232.0000      0.0006
  233.0000      0.0010
  234.0000      0.0007
  235.0000      0.0008
  236.0000      0.0009
  237.0000      0.0006
  238.0000      0.0008
  239.0000      0.0004
  240.0000      0.0004
  241.0000      0.0004
  242.0000      0.0003
  243.0000      0.0002
  244.0000      0.0003
  245.0000      0.0003
  246.0000      0.0003
  247.0000      0.0004
  248.0000      0.0001
  249.0000      0.0003
  250.0000      0.0006
  251.0000     -0.0001
  252.0000      0.0002
  253.0000      0.0005
  254.0000     -0.0002
  255.0000     -0.0003
  256.0000     -0.0000
  257.0000     -0.0001
  258.0000     -0.0000
  259.0000     -0.0005
  260.0000     -0.0003
  261.0000      0.0000
  262.0000      0.0003
  263.0000     -0.0000
  264.0000      0.0001
  265.0000      0.0004
  266.0000     -0.0000
  267.0000      0.0002
  268.0000      0.0003
  269.0000      0.0001
  270.0000     -0.0000
  271.0000      0.0002
  272.0000     -0.0003
  273.0000      0.0002
  274.0000      0.0004
  275.0000      0.0001
  276.0000      0.0001
  277.0000      0.0007
  278.0000      0.0004
  279.0000     -0.0000
  280.0000      0.0005
  281.0000      0.0007
  282.0000     -0.0002
  283.0000      0.0002
  284.0000      0.0006
  285.0000     -0.0001
  286.0000      0.0006
  287.0000      0.0003
  288.0000     -0.0001
  289.0000      0.0006
  290.0000      0.0002
  291.0000      0.0004
  292.0000      0.0001
  293.0000      0.0001
  294.0000      0.0002
  295.0000      0.0002
  296.0000      0.0007
  297.0000      0.0002
  298.0000      0.0003
  299.0000      0.0002
  300.0000      0.0003
  301.0000      0.0001
  302.0000      0.0004
  303.0000     -0.0001
  304.0000     -0.0000
  305.0000      0.0007
  306.0000     -0.0004
  307.0000     -0.0003
  308.0000      0.0001
  309.0000      0.0006
  310.0000     -0.0002
  311.0000     -0.0004
  312.0000      0.0009
  313.0000     -0.0003
  314.0000     -0.0005
  315.0000      0.0008
  316.0000      0.0004
  317.0000     -0.0000
  318.0000      0.0002
  319.0000      0.0002
  320.0000     -0.0001
  321.0000      0.0007
  322.0000     -0.0003
  323.0000      0.0001
  324.0000      0.0003
  325.0000      0.0001
  326.0000     -0.0002
  327.0000      0.0002
  328.0000     -0.0002
  329.0000     -0.0002
  330.0000      0.0001
  331.0000      0.0002
  332.0000     -0.0001
  333.0000      0.0001
  334.0000     -0.0002
  335.0000     -0.0001
  336.0000      0.0002
  337.0000     -0.0002
  338.0000     -0.0002
  339.0000      0.0001
  340.0000     -0.0001
  341.0000     -0.0002
  342.0000     -0.0003
  343.0000      0.0002
  344.0000     -0.0001
  345.0000     -0.0003
  346.0000     -0.0001
  347.0000     -0.0000
  348.0000     -0.0002
  349.0000      0.0000
  350.0000      0.0000
  351.0000     -0.0000
  352.0000      0.0002
  353.0000     -0.0003
  354.0000     -0.0002
  355.0000      0.0001
  356.0000     -0.0002
  357.0000      0.0016
  358.0000     -0.0020
  359.0000     -0.0000
  360.0000     -0.0011
  361.0000     -0.0006
  362.0000      0.0006
  363.0000     -0.0000
  364.0000     -0.0013
  365.0000     -0.0002
  366.0000      0.0002
  367.0000     -0.0011
  368.0000     -0.0005
  369.0000      0.0012
  370.0000     -0.0012
  371.0000     -0.0003
  372.0000      0.0006
  373.0000      0.0006
  374.0000     -0.0007
  375.0000     -0.0000
  376.0000     -0.0000
  377.0000      0.0003
  378.0000     -0.0001
  379.0000     -0.0000
  380.0000     -0.0010
  381.0000      0.0007
  382.0000     -0.0001
  383.0000     -0.0009
  384.0000      0.0001
  385.0000      0.0003
  386.0000     -0.0013
  387.0000     -0.0000
  388.0000      0.0002
  389.0000     -0.0004
  390.0000     -0.0005
  391.0000     -0.0004
  392.0000      0.0002
  393.0000     -0.0005
  394.0000     -0.0006
  395.0000     -0.0002
  396.0000     -0.0000
  397.0000     -0.0002
  398.0000     -0.0007
  399.0000     -0.0005
  400.0000     -0.0002
  401.0000     -0.0007
  402.0000     -0.0006
  403.0000     -0.0003
  404.0000     -0.0003
  405.0000     -0.0007
  406.0000     -0.0012
  407.0000     -0.0005
  408.0000     -0.0009
  409.0000     -0.0008
  410.0000     -0.0009
  411.0000     -0.0004
  412.0000     -0.0005
  413.0000     -0.0005
  414.0000     -0.0011
  415.0000     -0.0000
  416.0000     -0.0004
  417.0000     -0.0002
  418.0000     -0.0004
  419.0000     -0.0004
  420.0000     -0.0004
  421.0000     -0.0005
  422.0000     -0.0004
  423.0000     -0.0003
  424.0000     -0.0004
  425.0000     -0.0004
  426.0000     -0.0004
  427.0000     -0.0003
  428.0000     -0.0003
  429.0000     -0.0003
  430.0000     -0.0003
  431.0000     -0.0003
  432.0000     -0.0003
  433.0000     -0.0002
  434.0000     -0.0002
  435.0000     -0.0002
  436.0000     -0.0001
  437.0000     -0.0002
  438.0000     -0.0003
  439.0000     -0.0003
  440.0000     -0.0003
  441.0000     -0.0003
  442.0000     -0.0003
  443.0000     -0.0004
  444.0000     -0.0004
  445.0000     -0.0002
  446.0000     -0.0004
  447.0000     -0.0004
  448.0000     -0.0004
  449.0000     -0.0005
  450.0000     -0.0005
  451.0000     -0.0005
  452.0000     -0.0005
  453.0000     -0.0005
  454.0000     -0.0005
  455.0000     -0.0005
  456.0000     -0.0005
  457.0000     -0.0005
  458.0000     -0.0005
  459.0000     -0.0006
  460.0000     -0.0005
  461.0000     -0.0005
  462.0000     -0.0006
  463.0000     -0.0005
  464.0000     -0.0003
  465.0000     -0.0003
  466.0000     -0.0003
  467.0000     -0.0002
  468.0000     -0.0002
  469.0000     -0.0002
  470.0000     -0.0002
  471.0000     -0.0001
  472.0000     -0.0001
  473.0000     -0.0003
  474.0000     -0.0002
  475.0000     -0.0003
  476.0000     -0.0003
  477.0000     -0.0004
  478.0000     -0.0004
  479.0000     -0.0004
  480.0000     -0.0004
  481.0000     -0.0004
  482.0000     -0.0004
  483.0000     -0.0004
  484.0000     -0.0004
  485.0000     -0.0005
  486.0000     -0.0005
  487.0000     -0.0005
  488.0000     -0.0005
  489.0000     -0.0005
  490.0000     -0.0005
  491.0000     -0.0005
  492.0000     -0.0005
  493.0000     -0.0006
  494.0000     -0.0006
  495.0000     -0.0006
  496.0000     -0.0006
  497.0000     -0.0006
  498.0000     -0.0006
  499.0000     -0.0007
  500.0000     -0.0007
  501.0000     -0.0006
  502.0000     -0.0006
  503.0000     -0.0006
  504.0000     -0.0006
  505.0000     -0.0006
  506.0000     -0.0006
  507.0000     -0.0006
  508.0000     -0.0007
  509.0000     -0.0007
  510.0000     -0.0007
  511.0000     -0.0007
  512.0000     -0.0007
  513.0000     -0.0007
  514.0000     -0.0008
  515.0000     -0.0008
  516.0000     -0.0008
  517.0000     -0.0007
  518.0000     -0.0008
  519.0000     -0.0007
  520.0000     -0.0008
  521.0000     -0.0008
  522.0000     -0.0008
  523.0000     -0.0009
  524.0000     -0.0009
  525.0000     -0.0009
  526.0000     -0.0009
  527.0000     -0.0010
  528.0000     -0.0009
  529.0000     -0.0010
  530.0000     -0.0010
  531.0000     -0.0010
  532.0000     -0.0010
  533.0000     -0.0010
  534.0000     -0.0010
  535.0000     -0.0010
  536.0000     -0.0010
  537.0000     -0.0010
  538.0000     -0.0010
  539.0000     -0.0010
  540.0000     -0.0010
  541.0000     -0.0010
  542.0000     -0.0010
  543.0000     -0.0010
  544.0000     -0.0010
  545.0000     -0.0010
  546.0000     -0.0010
  547.0000     -0.0010
  548.0000     -0.0009
  549.0000     -0.0009
  550.0000     -0.0009
  551.0000     -0.0009
  552.0000     -0.0009
  553.0000     -0.0009
  554.0000     -0.0009
  555.0000     -0.0008
  556.0000     -0.0008
  557.0000     -0.0005
  558.0000     -0.0005
  559.0000     -0.0005
  560.0000     -0.0005
  561.0000     -0.0005
  562.0000     -0.0005
  563.0000     -0.0006
  564.0000     -0.0005
  565.0000     -0.0006
  566.0000     -0.0006
  567.0000     -0.0006
  568.0000     -0.0006
  569.0000     -0.0006
  570.0000     -0.0006
  571.0000     -0.0006
  572.0000     -0.0006
  573.0000     -0.0006
  574.0000     -0.0006
  575.0000     -0.0006
  576.0000     -0.0006
  577.0000     -0.0006
  578.0000     -0.0006
  579.0000     -0.0006
  580.0000     -0.0006
  581.0000     -0.0006
  582.0000     -0.0006
  583.0000     -0.0006
  584.0000     -0.0006
  585.0000     -0.0006
  586.0000     -0.0006
  587.0000     -0.0006
  588.0000     -0.0006
  589.0000     -0.0007
  590.0000     -0.0006
  591.0000     -0.0006
  592.0000     -0.0007
  593.0000     -0.0007
  594.0000     -0.0007
  595.0000     -0.0007
  596.0000     -0.0007
  597.0000     -0.0007
  598.0000     -0.0007
  599.0000     -0.0007
  600.0000     -0.0007
  601.0000     -0.0007
  602.0000     -0.0007
  603.0000     -0.0007
  604.0000     -0.0007
  605.0000     -0.0007
  606.0000     -0.0007
  607.0000     -0.0007
  608.0000     -0.0007
  609.0000     -0.0007
  610.0000     -0.0007
  611.0000     -0.0008
  612.0000     -0.0008
  613.0000     -0.0007
  614.0000     -0.0007
  615.0000     -0.0007
  616.0000     -0.0007
  617.0000     -0.0007
  618.0000     -0.0007
  619.0000     -0.0007
  620.0000     -0.0007
  621.0000     -0.0007
  622.0000     -0.0007
  623.0000     -0.0007
  624.0000     -0.0007
  625.0000     -0.0007
  626.0000     -0.0007
  627.0000     -0.0008
  628.0000     -0.0008
  629.0000     -0.0007
  630.0000     -0.0008
  631.0000     -0.0008
  632.0000     -0.0008
  633.0000     -0.0008
  634.0000     -0.0007
  635.0000     -0.0007
  636.0000     -0.0007
  637.0000     -0.0008
  638.0000     -0.0008
  639.0000     -0.0007
  640.0000     -0.0007
  641.0000     -0.0007
  642.0000     -0.0007
  643.0000     -0.0007
  644.0000     -0.0007
  645.0000     -0.0007
  646.0000     -0.0006
  647.0000     -0.0006
  648.0000     -0.0007
  649.0000     -0.0006
  650.0000     -0.0006
  651.0000     -0.0006
  652.0000     -0.0007
  653.0000     -0.0007
  654.0000     -0.0007
  655.0000     -0.0007
  656.0000     -0.0007
  657.0000     -0.0007
  658.0000     -0.0007
  659.0000     -0.0007
  660.0000     -0.0007
  661.0000     -0.0007
  662.0000     -0.0007
  663.0000     -0.0007
  664.0000     -0.0007
  665.0000     -0.0007
  666.0000     -0.0007
  667.0000     -0.0007
  668.0000     -0.0007
  669.0000     -0.0007
  670.0000     -0.0007
  671.0000     -0.0007
  672.0000     -0.0007
  673.0000     -0.0007
  674.0000     -0.0007
  675.0000     -0.0006
  676.0000     -0.0006
  677.0000     -0.0006
  678.0000     -0.0006
  679.0000     -0.0006
  680.0000     -0.0006
  681.0000     -0.0005
  682.0000     -0.0005
  683.0000     -0.0005
  684.0000     -0.0006
  685.0000     -0.0005
  686.0000     -0.0005
  687.0000     -0.0005
  688.0000     -0.0005
  689.0000     -0.0005
  690.0000     -0.0005
  691.0000     -0.0005
  692.0000     -0.0005
  693.0000     -0.0004
  694.0000     -0.0004
  695.0000     -0.0005
  696.0000     -0.0005
  697.0000     -0.0004
  698.0000     -0.0004
  699.0000     -0.0004
  700.0000     -0.0004
  701.0000     -0.0004
  702.0000     -0.0004
  703.0000     -0.0003
  704.0000     -0.0004
  705.0000     -0.0004
  706.0000     -0.0004
  707.0000     -0.0004
  708.0000     -0.0003
  709.0000     -0.0003
  710.0000     -0.0003
  711.0000     -0.0003
  712.0000     -0.0003
  713.0000     -0.0003
  714.0000     -0.0003
  715.0000     -0.0003
  716.0000     -0.0003
  717.0000     -0.0003
  718.0000     -0.0003
  719.0000     -0.0003
  720.0000     -0.0002
  721.0000     -0.0003
  722.0000     -0.0003
  723.0000     -0.0003
  724.0000     -0.0003
  725.0000     -0.0003
  726.0000     -0.0004
  727.0000     -0.0004
  728.0000     -0.0004
  729.0000     -0.0004
  730.0000     -0.0004
  731.0000     -0.0004
  732.0000     -0.0004
  733.0000     -0.0004
  734.0000     -0.0004
  735.0000     -0.0004
  736.0000     -0.0004
  737.0000     -0.0004
  738.0000     -0.0004
  739.0000     -0.0004
  740.0000     -0.0004
  741.0000     -0.0004
  742.0000     -0.0004
  743.0000     -0.0004
  744.0000     -0.0005
  745.0000     -0.0004
  746.0000     -0.0004
  747.0000     -0.0004
  748.0000     -0.0004
  749.0000     -0.0004
  750.0000     -0.0005
  751.0000     -0.0005
  752.0000     -0.0005
  753.0000     -0.0005
  754.0000     -0.0005
  755.0000     -0.0005
  756.0000     -0.0005
  757.0000     -0.0004
  758.0000     -0.0004
  759.0000     -0.0004
  760.0000     -0.0004
  761.0000     -0.0004
  762.0000     -0.0004
  763.0000     -0.0004
  764.0000     -0.0005
  765.0000     -0.0005
  766.0000     -0.0005
  767.0000     -0.0005
  768.0000     -0.0005
  769.0000     -0.0005
  770.0000     -0.0005
  771.0000     -0.0005
  772.0000     -0.0005
  773.0000     -0.0006
  774.0000     -0.0005
  775.0000     -0.0006
  776.0000     -0.0007
  777.0000     -0.0008
  778.0000     -0.0008
  779.0000     -0.0008
  780.0000     -0.0009
  781.0000     -0.0010
  782.0000     -0.0010
  783.0000     -0.0010
  784.0000     -0.0010
  785.0000     -0.0010
  786.0000     -0.0010
  787.0000     -0.0010
  788.0000     -0.0010
  789.0000     -0.0010
  790.0000     -0.0010
  791.0000     -0.0010
  792.0000     -0.0010
  793.0000     -0.0010
  794.0000     -0.0010
  795.0000     -0.0011
  796.0000     -0.0010
  797.0000     -0.0011
  798.0000     -0.0010
  799.0000     -0.0010
  800.0000     -0.0011
