Start Wavelength:    200.0000
End Wavelength:    800.0000
Read Mode:  ABS
Read Average:      0.1000
Nanometer Interval:      1.0000
Time:      0.0000

  200.0000     -0.0016
  201.0000     -0.0028
  202.0000     -0.0013
  203.0000     -0.0018
  204.0000     -0.0015
  205.0000     -0.0016
  206.0000     -0.0011
  207.0000     -0.0018
  208.0000     -0.0015
  209.0000     -0.0011
  210.0000     -0.0008
  211.0000     -0.0014
  212.0000     -0.0005
  213.0000     -0.0009
  214.0000     -0.0010
  215.0000     -0.0009
  216.0000     -0.0007
  217.0000     -0.0008
  218.0000     -0.0004
  219.0000     -0.0005
  220.0000     -0.0005
  221.0000     -0.0006
  222.0000     -0.0006
  223.0000     -0.0005
  224.0000     -0.0002
  225.0000     -0.0005
  226.0000     -0.0005
  227.0000     -0.0003
  228.0000     -0.0003
  229.0000     -0.0005
  230.0000     -0.0002
  231.0000     -0.0004
  232.0000     -0.0003
  233.0000     -0.0004
  234.0000     -0.0002
  235.0000     -0.0006
  236.0000     -0.0003
  237.0000     -0.0007
  238.0000     -0.0004
  239.0000     -0.0005
  240.0000     -0.0005
  241.0000     -0.0008
  242.0000     -0.0004
  243.0000     -0.0004
  244.0000     -0.0006
  245.0000     -0.0006
  246.0000     -0.0006
  247.0000     -0.0006
  248.0000     -0.0006
  249.0000     -0.0007
  250.0000     -0.0009
  251.0000     -0.0007
  252.0000     -0.0007
  253.0000     -0.0009
  254.0000     -0.0008
  255.0000     -0.0011
  256.0000     -0.0008
  257.0000     -0.0005
  258.0000     -0.0007
  259.0000     -0.0008
  260.0000     -0.0006
  261.0000     -0.0006
  262.0000     -0.0010
  263.0000     -0.0006
  264.0000     -0.0010
  265.0000     -0.0008
  266.0000     -0.0010
  267.0000     -0.0008
  268.0000     -0.0008
  269.0000     -0.0007
  270.0000     -0.0009
  271.0000     -0.0007
  272.0000     -0.0006
  273.0000     -0.0005
  274.0000     -0.0012
  275.0000     -0.0003
  276.0000     -0.0007
  277.0000     -0.0007
  278.0000     -0.0007
  279.0000     -0.0004
  280.0000     -0.0009
  281.0000     -0.0008
  282.0000     -0.0008
  283.0000     -0.0004
  284.0000     -0.0011
  285.0000     -0.0001
  286.0000     -0.0006
  287.0000     -0.0001
  288.0000     -0.0006
  289.0000      0.0001
  290.0000     -0.0003
  291.0000     -0.0002
  292.0000     -0.0009
  293.0000     -0.0004
  294.0000     -0.0008
  295.0000     -0.0003
  296.0000     -0.0008
  297.0000     -0.0004
  298.0000     -0.0005
  299.0000     -0.0006
  300.0000     -0.0005
  301.0000     -0.0004
  302.0000     -0.0010
  303.0000     -0.0006
  304.0000     -0.0004
  305.0000     -0.0005
  306.0000     -0.0009
  307.0000     -0.0005
  308.0000     -0.0005
  309.0000     -0.0008
  310.0000     -0.0013
  311.0000     -0.0007
  312.0000     -0.0010
  313.0000     -0.0005
  314.0000     -0.0007
  315.0000     -0.0008
  316.0000     -0.0007
  317.0000     -0.0004
  318.0000     -0.0005
  319.0000     -0.0002
  320.0000     -0.0006
  321.0000     -0.0007
  322.0000     -0.0004
  323.0000     -0.0002
  324.0000     -0.0004
  325.0000     -0.0003
  326.0000     -0.0006
  327.0000     -0.0004
  328.0000     -0.0002
  329.0000     -0.0006
  330.0000     -0.0002
  331.0000      0.0001
  332.0000     -0.0002
  333.0000     -0.0003
  334.0000     -0.0004
  335.0000     -0.0002
  336.0000     -0.0007
  337.0000     -0.0004
  338.0000     -0.0003
  339.0000     -0.0001
  340.0000     -0.0002
  341.0000     -0.0003
  342.0000     -0.0000
  343.0000     -0.0002
  344.0000     -0.0005
  345.0000     -0.0004
  346.0000      0.0003
  347.0000     -0.0004
  348.0000     -0.0003
  349.0000     -0.0002
  350.0000     -0.0000
  351.0000     -0.0009
  352.0000     -0.0001
  353.0000     -0.0003
  354.0000     -0.0001
  355.0000     -0.0006
  356.0000     -0.0002
  357.0000      0.0014
  358.0000     -0.0007
  359.0000      0.0002
  360.0000      0.0008
  361.0000      0.0004
  362.0000     -0.0002
  363.0000     -0.0000
  364.0000      0.0025
  365.0000      0.0002
  366.0000      0.0007
  367.0000     -0.0005
  368.0000      0.0005
  369.0000     -0.0000
  370.0000      0.0015
  371.0000      0.0013
  372.0000      0.0005
  373.0000      0.0006
  374.0000      0.0006
  375.0000     -0.0004
  376.0000     -0.0000
  377.0000      0.0001
  378.0000      0.0013
  379.0000      0.0004
  380.0000      0.0012
  381.0000      0.0002
  382.0000      0.0009
  383.0000     -0.0006
  384.0000      0.0004
  385.0000      0.0007
  386.0000      0.0003
  387.0000     -0.0003
  388.0000      0.0004
  389.0000      0.0002
  390.0000      0.0002
  391.0000      0.0002
  392.0000      0.0005
  393.0000      0.0004
  394.0000      0.0002
  395.0000      0.0006
  396.0000      0.0006
  397.0000     -0.0002
  398.0000      0.0004
  399.0000     -0.0001
  400.0000      0.0001
  401.0000     -0.0000
  402.0000      0.0006
  403.0000     -0.0000
  404.0000      0.0003
  405.0000     -0.0001
  406.0000     -0.0001
  407.0000     -0.0001
  408.0000      0.0002
  409.0000      0.0002
  410.0000     -0.0000
  411.0000     -0.0001
  412.0000     -0.0000
  413.0000     -0.0001
  414.0000      0.0002
  415.0000     -0.0001
  416.0000     -0.0001
  417.0000     -0.0002
  418.0000     -0.0001
  419.0000     -0.0002
  420.0000     -0.0002
  421.0000     -0.0001
  422.0000     -0.0003
  423.0000     -0.0001
  424.0000     -0.0003
  425.0000     -0.0002
  426.0000     -0.0003
  427.0000     -0.0001
  428.0000     -0.0002
  429.0000     -0.0002
  430.0000     -0.0003
  431.0000     -0.0002
  432.0000     -0.0002
  433.0000     -0.0002
  434.0000     -0.0002
  435.0000     -0.0002
  436.0000     -0.0002
  437.0000     -0.0002
  438.0000     -0.0003
  439.0000     -0.0003
  440.0000     -0.0003
  441.0000     -0.0003
  442.0000     -0.0004
  443.0000     -0.0004
  444.0000     -0.0004
  445.0000     -0.0004
  446.0000     -0.0004
  447.0000     -0.0004
  448.0000     -0.0004
  449.0000     -0.0003
  450.0000     -0.0005
  451.0000     -0.0004
  452.0000     -0.0005
  453.0000     -0.0005
  454.0000     -0.0006
  455.0000     -0.0005
  456.0000     -0.0005
  457.0000     -0.0006
  458.0000     -0.0005
  459.0000     -0.0005
  460.0000     -0.0005
  461.0000     -0.0005
  462.0000     -0.0005
  463.0000     -0.0003
  464.0000     -0.0003
  465.0000     -0.0003
  466.0000     -0.0002
  467.0000     -0.0002
  468.0000     -0.0002
  469.0000     -0.0002
  470.0000     -0.0001
  471.0000     -0.0002
  472.0000     -0.0002
  473.0000     -0.0002
  474.0000     -0.0002
  475.0000     -0.0002
  476.0000     -0.0002
  477.0000     -0.0003
  478.0000     -0.0003
  479.0000     -0.0003
  480.0000     -0.0003
  481.0000     -0.0003
  482.0000     -0.0004
  483.0000     -0.0004
  484.0000     -0.0004
  485.0000     -0.0004
  486.0000     -0.0004
  487.0000     -0.0004
  488.0000     -0.0005
  489.0000     -0.0005
  490.0000     -0.0004
  491.0000     -0.0004
  492.0000     -0.0004
  493.0000     -0.0004
  494.0000     -0.0004
  495.0000     -0.0004
  496.0000     -0.0005
  497.0000     -0.0004
  498.0000     -0.0005
  499.0000     -0.0005
  500.0000     -0.0005
  501.0000     -0.0005
  502.0000     -0.0006
  503.0000     -0.0006
  504.0000     -0.0006
  505.0000     -0.0006
  506.0000     -0.0006
  507.0000     -0.0006
  508.0000     -0.0006
  509.0000     -0.0006
  510.0000     -0.0006
  511.0000     -0.0006
  512.0000     -0.0006
  513.0000     -0.0006
  514.0000     -0.0006
  515.0000     -0.0006
  516.0000     -0.0006
  517.0000     -0.0006
  518.0000     -0.0006
  519.0000     -0.0007
  520.0000     -0.0007
  521.0000     -0.0007
  522.0000     -0.0007
  523.0000     -0.0008
  524.0000     -0.0007
  525.0000     -0.0007
  526.0000     -0.0007
  527.0000     -0.0007
  528.0000     -0.0007
  529.0000     -0.0007
  530.0000     -0.0007
  531.0000     -0.0007
  532.0000     -0.0007
  533.0000     -0.0007
  534.0000     -0.0007
  535.0000     -0.0007
  536.0000     -0.0007
  537.0000     -0.0007
  538.0000     -0.0007
  539.0000     -0.0008
  540.0000     -0.0008
  541.0000     -0.0008
  542.0000     -0.0007
  543.0000     -0.0008
  544.0000     -0.0008
  545.0000     -0.0008
  546.0000     -0.0008
  547.0000     -0.0008
  548.0000     -0.0008
  549.0000     -0.0008
  550.0000     -0.0008
  551.0000     -0.0009
  552.0000     -0.0009
  553.0000     -0.0009
  554.0000     -0.0009
  555.0000     -0.0009
  556.0000     -0.0009
  557.0000     -0.0003
  558.0000     -0.0003
  559.0000     -0.0003
  560.0000     -0.0004
  561.0000     -0.0004
  562.0000     -0.0004
  563.0000     -0.0005
  564.0000     -0.0005
  565.0000     -0.0005
  566.0000     -0.0005
  567.0000     -0.0006
  568.0000     -0.0006
  569.0000     -0.0006
  570.0000     -0.0006
  571.0000     -0.0006
  572.0000     -0.0006
  573.0000     -0.0007
  574.0000     -0.0006
  575.0000     -0.0007
  576.0000     -0.0007
  577.0000     -0.0007
  578.0000     -0.0007
  579.0000     -0.0007
  580.0000     -0.0007
  581.0000     -0.0007
  582.0000     -0.0007
  583.0000     -0.0007
  584.0000     -0.0007
  585.0000     -0.0008
  586.0000     -0.0008
  587.0000     -0.0008
  588.0000     -0.0008
  589.0000     -0.0008
  590.0000     -0.0008
  591.0000     -0.0008
  592.0000     -0.0008
  593.0000     -0.0008
  594.0000     -0.0008
  595.0000     -0.0008
  596.0000     -0.0008
  597.0000     -0.0008
  598.0000     -0.0008
  599.0000     -0.0008
  600.0000     -0.0009
  601.0000     -0.0008
  602.0000     -0.0008
  603.0000     -0.0008
  604.0000     -0.0008
  605.0000     -0.0008
  606.0000     -0.0008
  607.0000     -0.0008
  608.0000     -0.0008
  609.0000     -0.0008
  610.0000     -0.0008
  611.0000     -0.0008
  612.0000     -0.0008
  613.0000     -0.0008
  614.0000     -0.0008
  615.0000     -0.0008
  616.0000     -0.0008
  617.0000     -0.0008
  618.0000     -0.0008
  619.0000     -0.0008
  620.0000     -0.0009
  621.0000     -0.0009
  622.0000     -0.0009
  623.0000     -0.0009
  624.0000     -0.0009
  625.0000     -0.0008
  626.0000     -0.0008
  627.0000     -0.0008
  628.0000     -0.0008
  629.0000     -0.0007
  630.0000     -0.0007
  631.0000     -0.0007
  632.0000     -0.0007
  633.0000     -0.0007
  634.0000     -0.0007
  635.0000     -0.0007
  636.0000     -0.0007
  637.0000     -0.0007
  638.0000     -0.0007
  639.0000     -0.0007
  640.0000     -0.0007
  641.0000     -0.0006
  642.0000     -0.0006
  643.0000     -0.0006
  644.0000     -0.0006
  645.0000     -0.0006
  646.0000     -0.0006
  647.0000     -0.0006
  648.0000     -0.0006
  649.0000     -0.0006
  650.0000     -0.0006
  651.0000     -0.0006
  652.0000     -0.0006
  653.0000     -0.0006
  654.0000     -0.0006
  655.0000     -0.0006
  656.0000     -0.0006
  657.0000     -0.0006
  658.0000     -0.0006
  659.0000     -0.0006
  660.0000     -0.0006
  661.0000     -0.0006
  662.0000     -0.0006
  663.0000     -0.0006
  664.0000     -0.0006
  665.0000     -0.0006
  666.0000     -0.0006
  667.0000     -0.0006
  668.0000     -0.0005
  669.0000     -0.0006
  670.0000     -0.0005
  671.0000     -0.0005
  672.0000     -0.0005
  673.0000     -0.0005
  674.0000     -0.0005
  675.0000     -0.0005
  676.0000     -0.0005
  677.0000     -0.0005
  678.0000     -0.0005
  679.0000     -0.0005
  680.0000     -0.0005
  681.0000     -0.0005
  682.0000     -0.0005
  683.0000     -0.0006
  684.0000     -0.0005
  685.0000     -0.0005
  686.0000     -0.0005
  687.0000     -0.0005
  688.0000     -0.0005
  689.0000     -0.0005
  690.0000     -0.0005
  691.0000     -0.0005
  692.0000     -0.0004
  693.0000     -0.0004
  694.0000     -0.0004
  695.0000     -0.0004
  696.0000     -0.0005
  697.0000     -0.0005
  698.0000     -0.0005
  699.0000     -0.0005
  700.0000     -0.0004
  701.0000     -0.0004
  702.0000     -0.0005
  703.0000     -0.0005
  704.0000     -0.0004
  705.0000     -0.0004
  706.0000     -0.0004
  707.0000     -0.0004
  708.0000     -0.0004
  709.0000     -0.0004
  710.0000     -0.0004
  711.0000     -0.0004
  712.0000     -0.0004
  713.0000     -0.0004
  714.0000     -0.0005
  715.0000     -0.0005
  716.0000     -0.0005
  717.0000     -0.0005
  718.0000     -0.0004
  719.0000     -0.0005
  720.0000     -0.0005
  721.0000     -0.0005
  722.0000     -0.0005
  723.0000     -0.0005
  724.0000     -0.0005
  725.0000     -0.0005
  726.0000     -0.0005
  727.0000     -0.0005
  728.0000     -0.0005
  729.0000     -0.0005
  730.0000     -0.0005
  731.0000     -0.0005
  732.0000     -0.0005
  733.0000     -0.0005
  734.0000     -0.0005
  735.0000     -0.0006
  736.0000     -0.0004
  737.0000     -0.0004
  738.0000     -0.0004
  739.0000     -0.0004
  740.0000     -0.0005
  741.0000     -0.0004
  742.0000     -0.0005
  743.0000     -0.0005
  744.0000     -0.0004
  745.0000     -0.0005
  746.0000     -0.0004
  747.0000     -0.0004
  748.0000     -0.0004
  749.0000     -0.0004
  750.0000     -0.0004
  751.0000     -0.0004
  752.0000     -0.0004
  753.0000     -0.0004
  754.0000     -0.0004
  755.0000     -0.0004
  756.0000     -0.0003
  757.0000     -0.0003
  758.0000     -0.0003
  759.0000     -0.0003
  760.0000     -0.0003
  761.0000     -0.0003
  762.0000     -0.0003
  763.0000     -0.0003
  764.0000     -0.0003
  765.0000     -0.0003
  766.0000     -0.0003
  767.0000     -0.0003
  768.0000     -0.0003
  769.0000     -0.0003
  770.0000     -0.0002
  771.0000     -0.0002
  772.0000     -0.0002
  773.0000     -0.0002
  774.0000     -0.0002
  775.0000     -0.0002
  776.0000     -0.0002
  777.0000     -0.0002
  778.0000     -0.0002
  779.0000     -0.0002
  780.0000     -0.0002
  781.0000     -0.0002
  782.0000     -0.0001
  783.0000     -0.0001
  784.0000     -0.0002
  785.0000     -0.0001
  786.0000     -0.0001
  787.0000     -0.0001
  788.0000     -0.0002
  789.0000     -0.0001
  790.0000     -0.0001
  791.0000     -0.0002
  792.0000     -0.0001
  793.0000     -0.0002
  794.0000     -0.0002
  795.0000     -0.0002
  796.0000     -0.0002
  797.0000     -0.0002
  798.0000     -0.0002
  799.0000     -0.0002
  800.0000     -0.0002
