Start Wavelength:    200.0000
End Wavelength:    800.0000
Read Mode:  ABS
Read Average:      0.1000
Nanometer Interval:      1.0000
Time:      0.0000

  200.0000      0.4998
  201.0000      0.4545
  202.0000      0.4350
  203.0000      0.4116
  204.0000      0.3910
  205.0000      0.3748
  206.0000      0.3606
  207.0000      0.3466
  208.0000      0.3364
  209.0000      0.3229
  210.0000      0.3134
  211.0000      0.3032
  212.0000      0.2944
  213.0000      0.2851
  214.0000      0.2776
  215.0000      0.2697
  216.0000      0.2628
  217.0000      0.2555
  218.0000      0.2500
  219.0000      0.2435
  220.0000      0.2387
  221.0000      0.2324
  222.0000      0.2276
  223.0000      0.2232
  224.0000      0.2184
  225.0000      0.2135
  226.0000      0.2097
  227.0000      0.2051
  228.0000      0.2012
  229.0000      0.1966
  230.0000      0.1930
  231.0000      0.1884
  232.0000      0.1850
  233.0000      0.1804
  234.0000      0.1767
  235.0000      0.1733
  236.0000      0.1699
  237.0000      0.1664
  238.0000      0.1641
  239.0000      0.1613
  240.0000      0.1590
  241.0000      0.1570
  242.0000      0.1549
  243.0000      0.1532
  244.0000      0.1519
  245.0000      0.1497
  246.0000      0.1481
  247.0000      0.1474
  248.0000      0.1459
  249.0000      0.1442
  250.0000      0.1435
  251.0000      0.1421
  252.0000      0.1413
  253.0000      0.1404
  254.0000      0.1392
  255.0000      0.1384
  256.0000      0.1377
  257.0000      0.1369
  258.0000      0.1363
  259.0000      0.1358
  260.0000      0.1346
  261.0000      0.1336
  262.0000      0.1326
  263.0000      0.1317
  264.0000      0.1305
  265.0000      0.1302
  266.0000      0.1283
  267.0000      0.1277
  268.0000      0.1269
  269.0000      0.1255
  270.0000      0.1244
  271.0000      0.1234
  272.0000      0.1217
  273.0000      0.1209
  274.0000      0.1185
  275.0000      0.1179
  276.0000      0.1166
  277.0000      0.1157
  278.0000      0.1136
  279.0000      0.1125
  280.0000      0.1108
  281.0000      0.1093
  282.0000      0.1078
  283.0000      0.1071
  284.0000      0.1044
  285.0000      0.1041
  286.0000      0.1018
  287.0000      0.1010
  288.0000      0.0993
  289.0000      0.0979
  290.0000      0.0958
  291.0000      0.0952
  292.0000      0.0932
  293.0000      0.0917
  294.0000      0.0898
  295.0000      0.0889
  296.0000      0.0874
  297.0000      0.0862
  298.0000      0.0845
  299.0000      0.0840
  300.0000      0.0828
  301.0000      0.0816
  302.0000      0.0806
  303.0000      0.0801
  304.0000      0.0788
  305.0000      0.0778
  306.0000      0.0769
  307.0000      0.0758
  308.0000      0.0750
  309.0000      0.0746
  310.0000      0.0731
  311.0000      0.0729
  312.0000      0.0724
  313.0000      0.0712
  314.0000      0.0706
  315.0000      0.0702
  316.0000      0.0691
  317.0000      0.0691
  318.0000      0.0685
  319.0000      0.0675
  320.0000      0.0670
  321.0000      0.0669
  322.0000      0.0655
  323.0000      0.0652
  324.0000      0.0648
  325.0000      0.0639
  326.0000      0.0637
  327.0000      0.0634
  328.0000      0.0622
  329.0000      0.0623
  330.0000      0.0621
  331.0000      0.0611
  332.0000      0.0606
  333.0000      0.0605
  334.0000      0.0597
  335.0000      0.0598
  336.0000      0.0593
  337.0000      0.0588
  338.0000      0.0584
  339.0000      0.0583
  340.0000      0.0579
  341.0000      0.0577
  342.0000      0.0573
  343.0000      0.0568
  344.0000      0.0567
  345.0000      0.0559
  346.0000      0.0563
  347.0000      0.0557
  348.0000      0.0551
  349.0000      0.0550
  350.0000      0.0547
  351.0000      0.0537
  352.0000      0.0540
  353.0000      0.0538
  354.0000      0.0533
  355.0000      0.0529
  356.0000      0.0530
  357.0000      0.0530
  358.0000      0.0511
  359.0000      0.0521
  360.0000      0.0527
  361.0000      0.0501
  362.0000      0.0522
  363.0000      0.0512
  364.0000      0.0508
  365.0000      0.0517
  366.0000      0.0514
  367.0000      0.0488
  368.0000      0.0506
  369.0000      0.0489
  370.0000      0.0499
  371.0000      0.0496
  372.0000      0.0487
  373.0000      0.0484
  374.0000      0.0490
  375.0000      0.0480
  376.0000      0.0491
  377.0000      0.0483
  378.0000      0.0486
  379.0000      0.0477
  380.0000      0.0493
  381.0000      0.0472
  382.0000      0.0472
  383.0000      0.0471
  384.0000      0.0467
  385.0000      0.0471
  386.0000      0.0476
  387.0000      0.0461
  388.0000      0.0463
  389.0000      0.0463
  390.0000      0.0461
  391.0000      0.0456
  392.0000      0.0460
  393.0000      0.0446
  394.0000      0.0457
  395.0000      0.0448
  396.0000      0.0450
  397.0000      0.0449
  398.0000      0.0445
  399.0000      0.0446
  400.0000      0.0445
  401.0000      0.0448
  402.0000      0.0444
  403.0000      0.0441
  404.0000      0.0444
  405.0000      0.0437
  406.0000      0.0440
  407.0000      0.0433
  408.0000      0.0440
  409.0000      0.0439
  410.0000      0.0436
  411.0000      0.0434
  412.0000      0.0441
  413.0000      0.0435
  414.0000      0.0436
  415.0000      0.0437
  416.0000      0.0434
  417.0000      0.0434
  418.0000      0.0433
  419.0000      0.0431
  420.0000      0.0428
  421.0000      0.0428
  422.0000      0.0424
  423.0000      0.0426
  424.0000      0.0423
  425.0000      0.0422
  426.0000      0.0422
  427.0000      0.0422
  428.0000      0.0419
  429.0000      0.0420
  430.0000      0.0418
  431.0000      0.0417
  432.0000      0.0416
  433.0000      0.0415
  434.0000      0.0412
  435.0000      0.0413
  436.0000      0.0412
  437.0000      0.0411
  438.0000      0.0410
  439.0000      0.0408
  440.0000      0.0407
  441.0000      0.0405
  442.0000      0.0403
  443.0000      0.0401
  444.0000      0.0399
  445.0000      0.0396
  446.0000      0.0394
  447.0000      0.0392
  448.0000      0.0388
  449.0000      0.0386
  450.0000      0.0384
  451.0000      0.0382
  452.0000      0.0379
  453.0000      0.0376
  454.0000      0.0373
  455.0000      0.0373
  456.0000      0.0371
  457.0000      0.0369
  458.0000      0.0368
  459.0000      0.0367
  460.0000      0.0367
  461.0000      0.0367
  462.0000      0.0367
  463.0000      0.0368
  464.0000      0.0368
  465.0000      0.0369
  466.0000      0.0369
  467.0000      0.0369
  468.0000      0.0369
  469.0000      0.0368
  470.0000      0.0368
  471.0000      0.0365
  472.0000      0.0364
  473.0000      0.0362
  474.0000      0.0360
  475.0000      0.0360
  476.0000      0.0359
  477.0000      0.0357
  478.0000      0.0356
  479.0000      0.0354
  480.0000      0.0353
  481.0000      0.0352
  482.0000      0.0350
  483.0000      0.0349
  484.0000      0.0348
  485.0000      0.0347
  486.0000      0.0346
  487.0000      0.0345
  488.0000      0.0344
  489.0000      0.0344
  490.0000      0.0343
  491.0000      0.0342
  492.0000      0.0341
  493.0000      0.0340
  494.0000      0.0339
  495.0000      0.0337
  496.0000      0.0336
  497.0000      0.0335
  498.0000      0.0334
  499.0000      0.0332
  500.0000      0.0330
  501.0000      0.0328
  502.0000      0.0326
  503.0000      0.0324
  504.0000      0.0323
  505.0000      0.0321
  506.0000      0.0320
  507.0000      0.0318
  508.0000      0.0317
  509.0000      0.0315
  510.0000      0.0314
  511.0000      0.0313
  512.0000      0.0312
  513.0000      0.0310
  514.0000      0.0309
  515.0000      0.0308
  516.0000      0.0307
  517.0000      0.0306
  518.0000      0.0305
  519.0000      0.0304
  520.0000      0.0302
  521.0000      0.0301
  522.0000      0.0299
  523.0000      0.0298
  524.0000      0.0297
  525.0000      0.0295
  526.0000      0.0294
  527.0000      0.0293
  528.0000      0.0292
  529.0000      0.0291
  530.0000      0.0290
  531.0000      0.0289
  532.0000      0.0288
  533.0000      0.0286
  534.0000      0.0285
  535.0000      0.0284
  536.0000      0.0283
  537.0000      0.0282
  538.0000      0.0281
  539.0000      0.0280
  540.0000      0.0279
  541.0000      0.0279
  542.0000      0.0279
  543.0000      0.0277
  544.0000      0.0277
  545.0000      0.0276
  546.0000      0.0275
  547.0000      0.0274
  548.0000      0.0274
  549.0000      0.0273
  550.0000      0.0272
  551.0000      0.0271
  552.0000      0.0271
  553.0000      0.0271
  554.0000      0.0271
  555.0000      0.0271
  556.0000      0.0270
  557.0000      0.0271
  558.0000      0.0270
  559.0000      0.0270
  560.0000      0.0269
  561.0000      0.0268
  562.0000      0.0268
  563.0000      0.0267
  564.0000      0.0267
  565.0000      0.0267
  566.0000      0.0267
  567.0000      0.0266
  568.0000      0.0266
  569.0000      0.0266
  570.0000      0.0266
  571.0000      0.0266
  572.0000      0.0266
  573.0000      0.0265
  574.0000      0.0265
  575.0000      0.0264
  576.0000      0.0264
  577.0000      0.0264
  578.0000      0.0263
  579.0000      0.0263
  580.0000      0.0262
  581.0000      0.0262
  582.0000      0.0262
  583.0000      0.0261
  584.0000      0.0261
  585.0000      0.0260
  586.0000      0.0260
  587.0000      0.0259
  588.0000      0.0258
  589.0000      0.0258
  590.0000      0.0258
  591.0000      0.0257
  592.0000      0.0257
  593.0000      0.0256
  594.0000      0.0256
  595.0000      0.0256
  596.0000      0.0256
  597.0000      0.0256
  598.0000      0.0255
  599.0000      0.0255
  600.0000      0.0255
  601.0000      0.0255
  602.0000      0.0256
  603.0000      0.0256
  604.0000      0.0256
  605.0000      0.0256
  606.0000      0.0255
  607.0000      0.0255
  608.0000      0.0254
  609.0000      0.0254
  610.0000      0.0253
  611.0000      0.0252
  612.0000      0.0251
  613.0000      0.0250
  614.0000      0.0249
  615.0000      0.0248
  616.0000      0.0248
  617.0000      0.0247
  618.0000      0.0246
  619.0000      0.0245
  620.0000      0.0244
  621.0000      0.0243
  622.0000      0.0242
  623.0000      0.0242
  624.0000      0.0242
  625.0000      0.0242
  626.0000      0.0242
  627.0000      0.0242
  628.0000      0.0242
  629.0000      0.0242
  630.0000      0.0242
  631.0000      0.0241
  632.0000      0.0240
  633.0000      0.0240
  634.0000      0.0239
  635.0000      0.0238
  636.0000      0.0238
  637.0000      0.0237
  638.0000      0.0236
  639.0000      0.0235
  640.0000      0.0235
  641.0000      0.0234
  642.0000      0.0233
  643.0000      0.0233
  644.0000      0.0232
  645.0000      0.0232
  646.0000      0.0232
  647.0000      0.0233
  648.0000      0.0232
  649.0000      0.0232
  650.0000      0.0233
  651.0000      0.0232
  652.0000      0.0232
  653.0000      0.0232
  654.0000      0.0233
  655.0000      0.0232
  656.0000      0.0233
  657.0000      0.0233
  658.0000      0.0233
  659.0000      0.0234
  660.0000      0.0235
  661.0000      0.0234
  662.0000      0.0235
  663.0000      0.0236
  664.0000      0.0237
  665.0000      0.0237
  666.0000      0.0238
  667.0000      0.0239
  668.0000      0.0240
  669.0000      0.0241
  670.0000      0.0242
  671.0000      0.0243
  672.0000      0.0244
  673.0000      0.0245
  674.0000      0.0246
  675.0000      0.0247
  676.0000      0.0248
  677.0000      0.0249
  678.0000      0.0249
  679.0000      0.0250
  680.0000      0.0250
  681.0000      0.0249
  682.0000      0.0250
  683.0000      0.0249
  684.0000      0.0248
  685.0000      0.0246
  686.0000      0.0245
  687.0000      0.0243
  688.0000      0.0242
  689.0000      0.0240
  690.0000      0.0238
  691.0000      0.0236
  692.0000      0.0235
  693.0000      0.0233
  694.0000      0.0232
  695.0000      0.0230
  696.0000      0.0229
  697.0000      0.0228
  698.0000      0.0227
  699.0000      0.0226
  700.0000      0.0224
  701.0000      0.0224
  702.0000      0.0222
  703.0000      0.0221
  704.0000      0.0220
  705.0000      0.0220
  706.0000      0.0219
  707.0000      0.0218
  708.0000      0.0217
  709.0000      0.0216
  710.0000      0.0215
  711.0000      0.0214
  712.0000      0.0214
  713.0000      0.0214
  714.0000      0.0212
  715.0000      0.0212
  716.0000      0.0212
  717.0000      0.0211
  718.0000      0.0211
  719.0000      0.0210
  720.0000      0.0209
  721.0000      0.0209
  722.0000      0.0208
  723.0000      0.0208
  724.0000      0.0207
  725.0000      0.0207
  726.0000      0.0207
  727.0000      0.0206
  728.0000      0.0206
  729.0000      0.0206
  730.0000      0.0205
  731.0000      0.0204
  732.0000      0.0204
  733.0000      0.0203
  734.0000      0.0203
  735.0000      0.0202
  736.0000      0.0199
  737.0000      0.0198
  738.0000      0.0197
  739.0000      0.0197
  740.0000      0.0197
  741.0000      0.0197
  742.0000      0.0197
  743.0000      0.0197
  744.0000      0.0197
  745.0000      0.0198
  746.0000      0.0198
  747.0000      0.0198
  748.0000      0.0198
  749.0000      0.0198
  750.0000      0.0198
  751.0000      0.0199
  752.0000      0.0199
  753.0000      0.0199
  754.0000      0.0199
  755.0000      0.0199
  756.0000      0.0199
  757.0000      0.0198
  758.0000      0.0197
  759.0000      0.0198
  760.0000      0.0198
  761.0000      0.0197
  762.0000      0.0196
  763.0000      0.0196
  764.0000      0.0195
  765.0000      0.0196
  766.0000      0.0195
  767.0000      0.0195
  768.0000      0.0195
  769.0000      0.0194
  770.0000      0.0195
  771.0000      0.0194
  772.0000      0.0194
  773.0000      0.0194
  774.0000      0.0193
  775.0000      0.0193
  776.0000      0.0192
  777.0000      0.0192
  778.0000      0.0192
  779.0000      0.0192
  780.0000      0.0191
  781.0000      0.0191
  782.0000      0.0191
  783.0000      0.0191
  784.0000      0.0191
  785.0000      0.0190
  786.0000      0.0190
  787.0000      0.0190
  788.0000      0.0189
  789.0000      0.0190
  790.0000      0.0190
  791.0000      0.0189
  792.0000      0.0190
  793.0000      0.0189
  794.0000      0.0189
  795.0000      0.0189
  796.0000      0.0189
  797.0000      0.0189
  798.0000      0.0189
  799.0000      0.0188
  800.0000      0.0189
