Start Wavelength:    200.0000
End Wavelength:    800.0000
Read Mode:  ABS
Read Average:      0.1000
Nanometer Interval:      1.0000
Time:      0.0000

  200.0000      0.4760
  201.0000      0.4310
  202.0000      0.4132
  203.0000      0.3908
  204.0000      0.3729
  205.0000      0.3575
  206.0000      0.3439
  207.0000      0.3313
  208.0000      0.3214
  209.0000      0.3089
  210.0000      0.2995
  211.0000      0.2904
  212.0000      0.2828
  213.0000      0.2734
  214.0000      0.2664
  215.0000      0.2591
  216.0000      0.2522
  217.0000      0.2455
  218.0000      0.2399
  219.0000      0.2340
  220.0000      0.2290
  221.0000      0.2230
  222.0000      0.2187
  223.0000      0.2142
  224.0000      0.2095
  225.0000      0.2049
  226.0000      0.2011
  227.0000      0.1971
  228.0000      0.1935
  229.0000      0.1891
  230.0000      0.1857
  231.0000      0.1820
  232.0000      0.1786
  233.0000      0.1744
  234.0000      0.1714
  235.0000      0.1678
  236.0000      0.1648
  237.0000      0.1619
  238.0000      0.1596
  239.0000      0.1567
  240.0000      0.1550
  241.0000      0.1527
  242.0000      0.1507
  243.0000      0.1492
  244.0000      0.1480
  245.0000      0.1461
  246.0000      0.1447
  247.0000      0.1435
  248.0000      0.1422
  249.0000      0.1413
  250.0000      0.1400
  251.0000      0.1390
  252.0000      0.1382
  253.0000      0.1371
  254.0000      0.1362
  255.0000      0.1349
  256.0000      0.1340
  257.0000      0.1331
  258.0000      0.1321
  259.0000      0.1312
  260.0000      0.1301
  261.0000      0.1293
  262.0000      0.1278
  263.0000      0.1269
  264.0000      0.1257
  265.0000      0.1244
  266.0000      0.1230
  267.0000      0.1223
  268.0000      0.1205
  269.0000      0.1200
  270.0000      0.1183
  271.0000      0.1165
  272.0000      0.1156
  273.0000      0.1144
  274.0000      0.1123
  275.0000      0.1117
  276.0000      0.1102
  277.0000      0.1089
  278.0000      0.1073
  279.0000      0.1064
  280.0000      0.1040
  281.0000      0.1027
  282.0000      0.1018
  283.0000      0.1003
  284.0000      0.0982
  285.0000      0.0977
  286.0000      0.0950
  287.0000      0.0947
  288.0000      0.0929
  289.0000      0.0912
  290.0000      0.0898
  291.0000      0.0886
  292.0000      0.0865
  293.0000      0.0854
  294.0000      0.0837
  295.0000      0.0824
  296.0000      0.0808
  297.0000      0.0802
  298.0000      0.0783
  299.0000      0.0774
  300.0000      0.0766
  301.0000      0.0749
  302.0000      0.0743
  303.0000      0.0734
  304.0000      0.0722
  305.0000      0.0712
  306.0000      0.0706
  307.0000      0.0690
  308.0000      0.0683
  309.0000      0.0682
  310.0000      0.0667
  311.0000      0.0664
  312.0000      0.0657
  313.0000      0.0647
  314.0000      0.0645
  315.0000      0.0632
  316.0000      0.0628
  317.0000      0.0626
  318.0000      0.0617
  319.0000      0.0616
  320.0000      0.0609
  321.0000      0.0609
  322.0000      0.0618
  323.0000      0.0607
  324.0000      0.0606
  325.0000      0.0602
  326.0000      0.0595
  327.0000      0.0592
  328.0000      0.0588
  329.0000      0.0578
  330.0000      0.0578
  331.0000      0.0579
  332.0000      0.0567
  333.0000      0.0566
  334.0000      0.0561
  335.0000      0.0554
  336.0000      0.0551
  337.0000      0.0551
  338.0000      0.0543
  339.0000      0.0543
  340.0000      0.0539
  341.0000      0.0534
  342.0000      0.0536
  343.0000      0.0531
  344.0000      0.0525
  345.0000      0.0522
  346.0000      0.0523
  347.0000      0.0512
  348.0000      0.0515
  349.0000      0.0508
  350.0000      0.0506
  351.0000      0.0498
  352.0000      0.0500
  353.0000      0.0493
  354.0000      0.0496
  355.0000      0.0487
  356.0000      0.0485
  357.0000      0.0470
  358.0000      0.0479
  359.0000      0.0483
  360.0000      0.0465
  361.0000      0.0473
  362.0000      0.0479
  363.0000      0.0444
  364.0000      0.0476
  365.0000      0.0471
  366.0000      0.0463
  367.0000      0.0450
  368.0000      0.0459
  369.0000      0.0440
  370.0000      0.0457
  371.0000      0.0440
  372.0000      0.0452
  373.0000      0.0447
  374.0000      0.0446
  375.0000      0.0434
  376.0000      0.0442
  377.0000      0.0437
  378.0000      0.0439
  379.0000      0.0438
  380.0000      0.0438
  381.0000      0.0425
  382.0000      0.0425
  383.0000      0.0419
  384.0000      0.0423
  385.0000      0.0429
  386.0000      0.0421
  387.0000      0.0419
  388.0000      0.0425
  389.0000      0.0412
  390.0000      0.0420
  391.0000      0.0415
  392.0000      0.0410
  393.0000      0.0410
  394.0000      0.0409
  395.0000      0.0405
  396.0000      0.0407
  397.0000      0.0401
  398.0000      0.0402
  399.0000      0.0399
  400.0000      0.0396
  401.0000      0.0401
  402.0000      0.0403
  403.0000      0.0399
  404.0000      0.0401
  405.0000      0.0399
  406.0000      0.0395
  407.0000      0.0397
  408.0000      0.0403
  409.0000      0.0394
  410.0000      0.0395
  411.0000      0.0396
  412.0000      0.0396
  413.0000      0.0393
  414.0000      0.0390
  415.0000      0.0391
  416.0000      0.0397
  417.0000      0.0396
  418.0000      0.0396
  419.0000      0.0394
  420.0000      0.0393
  421.0000      0.0393
  422.0000      0.0390
  423.0000      0.0390
  424.0000      0.0387
  425.0000      0.0387
  426.0000      0.0385
  427.0000      0.0384
  428.0000      0.0384
  429.0000      0.0384
  430.0000      0.0382
  431.0000      0.0383
  432.0000      0.0380
  433.0000      0.0382
  434.0000      0.0378
  435.0000      0.0379
  436.0000      0.0378
  437.0000      0.0376
  438.0000      0.0375
  439.0000      0.0373
  440.0000      0.0371
  441.0000      0.0369
  442.0000      0.0368
  443.0000      0.0364
  444.0000      0.0363
  445.0000      0.0359
  446.0000      0.0356
  447.0000      0.0354
  448.0000      0.0351
  449.0000      0.0349
  450.0000      0.0345
  451.0000      0.0343
  452.0000      0.0339
  453.0000      0.0337
  454.0000      0.0333
  455.0000      0.0332
  456.0000      0.0329
  457.0000      0.0326
  458.0000      0.0325
  459.0000      0.0323
  460.0000      0.0322
  461.0000      0.0321
  462.0000      0.0321
  463.0000      0.0323
  464.0000      0.0322
  465.0000      0.0322
  466.0000      0.0322
  467.0000      0.0323
  468.0000      0.0322
  469.0000      0.0321
  470.0000      0.0321
  471.0000      0.0320
  472.0000      0.0319
  473.0000      0.0318
  474.0000      0.0317
  475.0000      0.0316
  476.0000      0.0315
  477.0000      0.0313
  478.0000      0.0311
  479.0000      0.0310
  480.0000      0.0309
  481.0000      0.0308
  482.0000      0.0307
  483.0000      0.0306
  484.0000      0.0305
  485.0000      0.0304
  486.0000      0.0303
  487.0000      0.0302
  488.0000      0.0302
  489.0000      0.0302
  490.0000      0.0302
  491.0000      0.0303
  492.0000      0.0303
  493.0000      0.0303
  494.0000      0.0303
  495.0000      0.0302
  496.0000      0.0302
  497.0000      0.0302
  498.0000      0.0301
  499.0000      0.0300
  500.0000      0.0298
  501.0000      0.0296
  502.0000      0.0296
  503.0000      0.0294
  504.0000      0.0293
  505.0000      0.0292
  506.0000      0.0291
  507.0000      0.0290
  508.0000      0.0289
  509.0000      0.0288
  510.0000      0.0287
  511.0000      0.0286
  512.0000      0.0284
  513.0000      0.0283
  514.0000      0.0281
  515.0000      0.0279
  516.0000      0.0278
  517.0000      0.0276
  518.0000      0.0275
  519.0000      0.0273
  520.0000      0.0272
  521.0000      0.0271
  522.0000      0.0270
  523.0000      0.0268
  524.0000      0.0267
  525.0000      0.0266
  526.0000      0.0265
  527.0000      0.0264
  528.0000      0.0263
  529.0000      0.0261
  530.0000      0.0259
  531.0000      0.0258
  532.0000      0.0256
  533.0000      0.0254
  534.0000      0.0253
  535.0000      0.0251
  536.0000      0.0249
  537.0000      0.0248
  538.0000      0.0246
  539.0000      0.0245
  540.0000      0.0244
  541.0000      0.0243
  542.0000      0.0242
  543.0000      0.0241
  544.0000      0.0241
  545.0000      0.0240
  546.0000      0.0239
  547.0000      0.0237
  548.0000      0.0236
  549.0000      0.0235
  550.0000      0.0234
  551.0000      0.0232
  552.0000      0.0232
  553.0000      0.0232
  554.0000      0.0232
  555.0000      0.0233
  556.0000      0.0233
  557.0000      0.0257
  558.0000      0.0256
  559.0000      0.0255
  560.0000      0.0254
  561.0000      0.0253
  562.0000      0.0252
  563.0000      0.0251
  564.0000      0.0250
  565.0000      0.0249
  566.0000      0.0248
  567.0000      0.0247
  568.0000      0.0246
  569.0000      0.0245
  570.0000      0.0244
  571.0000      0.0242
  572.0000      0.0242
  573.0000      0.0240
  574.0000      0.0240
  575.0000      0.0239
  576.0000      0.0238
  577.0000      0.0236
  578.0000      0.0235
  579.0000      0.0234
  580.0000      0.0232
  581.0000      0.0231
  582.0000      0.0231
  583.0000      0.0230
  584.0000      0.0229
  585.0000      0.0228
  586.0000      0.0226
  587.0000      0.0226
  588.0000      0.0224
  589.0000      0.0223
  590.0000      0.0222
  591.0000      0.0221
  592.0000      0.0220
  593.0000      0.0218
  594.0000      0.0218
  595.0000      0.0217
  596.0000      0.0216
  597.0000      0.0215
  598.0000      0.0214
  599.0000      0.0213
  600.0000      0.0212
  601.0000      0.0212
  602.0000      0.0211
  603.0000      0.0212
  604.0000      0.0212
  605.0000      0.0212
  606.0000      0.0212
  607.0000      0.0211
  608.0000      0.0210
  609.0000      0.0211
  610.0000      0.0212
  611.0000      0.0212
  612.0000      0.0212
  613.0000      0.0212
  614.0000      0.0213
  615.0000      0.0213
  616.0000      0.0213
  617.0000      0.0214
  618.0000      0.0215
  619.0000      0.0215
  620.0000      0.0215
  621.0000      0.0215
  622.0000      0.0216
  623.0000      0.0216
  624.0000      0.0216
  625.0000      0.0217
  626.0000      0.0218
  627.0000      0.0218
  628.0000      0.0218
  629.0000      0.0218
  630.0000      0.0219
  631.0000      0.0219
  632.0000      0.0218
  633.0000      0.0218
  634.0000      0.0218
  635.0000      0.0218
  636.0000      0.0218
  637.0000      0.0217
  638.0000      0.0217
  639.0000      0.0216
  640.0000      0.0216
  641.0000      0.0216
  642.0000      0.0215
  643.0000      0.0214
  644.0000      0.0214
  645.0000      0.0213
  646.0000      0.0213
  647.0000      0.0212
  648.0000      0.0211
  649.0000      0.0211
  650.0000      0.0210
  651.0000      0.0210
  652.0000      0.0209
  653.0000      0.0208
  654.0000      0.0207
  655.0000      0.0207
  656.0000      0.0206
  657.0000      0.0205
  658.0000      0.0205
  659.0000      0.0205
  660.0000      0.0205
  661.0000      0.0205
  662.0000      0.0206
  663.0000      0.0206
  664.0000      0.0206
  665.0000      0.0206
  666.0000      0.0207
  667.0000      0.0208
  668.0000      0.0209
  669.0000      0.0210
  670.0000      0.0211
  671.0000      0.0212
  672.0000      0.0213
  673.0000      0.0213
  674.0000      0.0214
  675.0000      0.0214
  676.0000      0.0215
  677.0000      0.0215
  678.0000      0.0216
  679.0000      0.0216
  680.0000      0.0216
  681.0000      0.0215
  682.0000      0.0215
  683.0000      0.0213
  684.0000      0.0212
  685.0000      0.0211
  686.0000      0.0209
  687.0000      0.0207
  688.0000      0.0205
  689.0000      0.0203
  690.0000      0.0201
  691.0000      0.0199
  692.0000      0.0197
  693.0000      0.0195
  694.0000      0.0192
  695.0000      0.0190
  696.0000      0.0188
  697.0000      0.0186
  698.0000      0.0185
  699.0000      0.0183
  700.0000      0.0182
  701.0000      0.0181
  702.0000      0.0180
  703.0000      0.0179
  704.0000      0.0178
  705.0000      0.0178
  706.0000      0.0176
  707.0000      0.0176
  708.0000      0.0176
  709.0000      0.0175
  710.0000      0.0174
  711.0000      0.0174
  712.0000      0.0173
  713.0000      0.0172
  714.0000      0.0172
  715.0000      0.0172
  716.0000      0.0171
  717.0000      0.0171
  718.0000      0.0171
  719.0000      0.0170
  720.0000      0.0169
  721.0000      0.0169
  722.0000      0.0169
  723.0000      0.0169
  724.0000      0.0168
  725.0000      0.0168
  726.0000      0.0167
  727.0000      0.0167
  728.0000      0.0167
  729.0000      0.0166
  730.0000      0.0166
  731.0000      0.0165
  732.0000      0.0165
  733.0000      0.0164
  734.0000      0.0164
  735.0000      0.0163
  736.0000      0.0163
  737.0000      0.0163
  738.0000      0.0162
  739.0000      0.0162
  740.0000      0.0162
  741.0000      0.0162
  742.0000      0.0161
  743.0000      0.0161
  744.0000      0.0161
  745.0000      0.0160
  746.0000      0.0160
  747.0000      0.0160
  748.0000      0.0160
  749.0000      0.0160
  750.0000      0.0159
  751.0000      0.0159
  752.0000      0.0160
  753.0000      0.0160
  754.0000      0.0160
  755.0000      0.0160
  756.0000      0.0161
  757.0000      0.0160
  758.0000      0.0161
  759.0000      0.0161
  760.0000      0.0161
  761.0000      0.0161
  762.0000      0.0161
  763.0000      0.0160
  764.0000      0.0160
  765.0000      0.0160
  766.0000      0.0160
  767.0000      0.0160
  768.0000      0.0160
  769.0000      0.0160
  770.0000      0.0160
  771.0000      0.0159
  772.0000      0.0159
  773.0000      0.0159
  774.0000      0.0158
  775.0000      0.0158
  776.0000      0.0157
  777.0000      0.0157
  778.0000      0.0157
  779.0000      0.0157
  780.0000      0.0157
  781.0000      0.0157
  782.0000      0.0158
  783.0000      0.0158
  784.0000      0.0158
  785.0000      0.0158
  786.0000      0.0158
  787.0000      0.0158
  788.0000      0.0158
  789.0000      0.0159
  790.0000      0.0158
  791.0000      0.0158
  792.0000      0.0159
  793.0000      0.0158
  794.0000      0.0158
  795.0000      0.0158
  796.0000      0.0158
  797.0000      0.0158
  798.0000      0.0158
  799.0000      0.0157
  800.0000      0.0157
