Start Wavelength:    200.0000
End Wavelength:    800.0000
Read Mode:  ABS
Read Average:      0.1000
Nanometer Interval:      1.0000
Time:      0.0000

  200.0000      0.4859
  201.0000      0.4414
  202.0000      0.4209
  203.0000      0.3990
  204.0000      0.3790
  205.0000      0.3618
  206.0000      0.3482
  207.0000      0.3353
  208.0000      0.3248
  209.0000      0.3142
  210.0000      0.3027
  211.0000      0.2936
  212.0000      0.2862
  213.0000      0.2757
  214.0000      0.2689
  215.0000      0.2619
  216.0000      0.2544
  217.0000      0.2472
  218.0000      0.2422
  219.0000      0.2361
  220.0000      0.2310
  221.0000      0.2252
  222.0000      0.2205
  223.0000      0.2156
  224.0000      0.2112
  225.0000      0.2062
  226.0000      0.2022
  227.0000      0.1980
  228.0000      0.1941
  229.0000      0.1895
  230.0000      0.1863
  231.0000      0.1819
  232.0000      0.1790
  233.0000      0.1747
  234.0000      0.1714
  235.0000      0.1681
  236.0000      0.1650
  237.0000      0.1617
  238.0000      0.1594
  239.0000      0.1568
  240.0000      0.1544
  241.0000      0.1525
  242.0000      0.1509
  243.0000      0.1490
  244.0000      0.1479
  245.0000      0.1462
  246.0000      0.1446
  247.0000      0.1437
  248.0000      0.1427
  249.0000      0.1413
  250.0000      0.1401
  251.0000      0.1392
  252.0000      0.1381
  253.0000      0.1368
  254.0000      0.1361
  255.0000      0.1351
  256.0000      0.1340
  257.0000      0.1335
  258.0000      0.1325
  259.0000      0.1318
  260.0000      0.1309
  261.0000      0.1294
  262.0000      0.1285
  263.0000      0.1278
  264.0000      0.1262
  265.0000      0.1257
  266.0000      0.1238
  267.0000      0.1230
  268.0000      0.1219
  269.0000      0.1208
  270.0000      0.1189
  271.0000      0.1181
  272.0000      0.1167
  273.0000      0.1154
  274.0000      0.1139
  275.0000      0.1132
  276.0000      0.1109
  277.0000      0.1104
  278.0000      0.1090
  279.0000      0.1073
  280.0000      0.1056
  281.0000      0.1047
  282.0000      0.1027
  283.0000      0.1017
  284.0000      0.1001
  285.0000      0.0995
  286.0000      0.0968
  287.0000      0.0964
  288.0000      0.0943
  289.0000      0.0929
  290.0000      0.0909
  291.0000      0.0904
  292.0000      0.0879
  293.0000      0.0871
  294.0000      0.0851
  295.0000      0.0843
  296.0000      0.0827
  297.0000      0.0815
  298.0000      0.0802
  299.0000      0.0790
  300.0000      0.0778
  301.0000      0.0770
  302.0000      0.0759
  303.0000      0.0751
  304.0000      0.0741
  305.0000      0.0733
  306.0000      0.0721
  307.0000      0.0710
  308.0000      0.0702
  309.0000      0.0696
  310.0000      0.0684
  311.0000      0.0681
  312.0000      0.0677
  313.0000      0.0665
  314.0000      0.0658
  315.0000      0.0660
  316.0000      0.0650
  317.0000      0.0645
  318.0000      0.0641
  319.0000      0.0635
  320.0000      0.0632
  321.0000      0.0626
  322.0000      0.0615
  323.0000      0.0610
  324.0000      0.0601
  325.0000      0.0598
  326.0000      0.0593
  327.0000      0.0591
  328.0000      0.0578
  329.0000      0.0578
  330.0000      0.0581
  331.0000      0.0571
  332.0000      0.0567
  333.0000      0.0566
  334.0000      0.0557
  335.0000      0.0552
  336.0000      0.0550
  337.0000      0.0547
  338.0000      0.0541
  339.0000      0.0539
  340.0000      0.0540
  341.0000      0.0530
  342.0000      0.0530
  343.0000      0.0525
  344.0000      0.0518
  345.0000      0.0514
  346.0000      0.0516
  347.0000      0.0507
  348.0000      0.0505
  349.0000      0.0505
  350.0000      0.0501
  351.0000      0.0485
  352.0000      0.0493
  353.0000      0.0487
  354.0000      0.0484
  355.0000      0.0480
  356.0000      0.0478
  357.0000      0.0487
  358.0000      0.0491
  359.0000      0.0478
  360.0000      0.0479
  361.0000      0.0487
  362.0000      0.0484
  363.0000      0.0472
  364.0000      0.0488
  365.0000      0.0475
  366.0000      0.0473
  367.0000      0.0464
  368.0000      0.0476
  369.0000      0.0455
  370.0000      0.0470
  371.0000      0.0460
  372.0000      0.0471
  373.0000      0.0457
  374.0000      0.0467
  375.0000      0.0452
  376.0000      0.0459
  377.0000      0.0462
  378.0000      0.0456
  379.0000      0.0448
  380.0000      0.0455
  381.0000      0.0438
  382.0000      0.0444
  383.0000      0.0441
  384.0000      0.0445
  385.0000      0.0435
  386.0000      0.0442
  387.0000      0.0434
  388.0000      0.0427
  389.0000      0.0428
  390.0000      0.0432
  391.0000      0.0425
  392.0000      0.0426
  393.0000      0.0422
  394.0000      0.0420
  395.0000      0.0419
  396.0000      0.0420
  397.0000      0.0415
  398.0000      0.0414
  399.0000      0.0411
  400.0000      0.0416
  401.0000      0.0409
  402.0000      0.0413
  403.0000      0.0412
  404.0000      0.0408
  405.0000      0.0406
  406.0000      0.0408
  407.0000      0.0402
  408.0000      0.0407
  409.0000      0.0405
  410.0000      0.0401
  411.0000      0.0401
  412.0000      0.0404
  413.0000      0.0400
  414.0000      0.0399
  415.0000      0.0403
  416.0000      0.0401
  417.0000      0.0402
  418.0000      0.0402
  419.0000      0.0400
  420.0000      0.0399
  421.0000      0.0400
  422.0000      0.0397
  423.0000      0.0398
  424.0000      0.0397
  425.0000      0.0397
  426.0000      0.0396
  427.0000      0.0397
  428.0000      0.0395
  429.0000      0.0395
  430.0000      0.0394
  431.0000      0.0395
  432.0000      0.0393
  433.0000      0.0394
  434.0000      0.0392
  435.0000      0.0393
  436.0000      0.0392
  437.0000      0.0391
  438.0000      0.0389
  439.0000      0.0388
  440.0000      0.0386
  441.0000      0.0385
  442.0000      0.0382
  443.0000      0.0379
  444.0000      0.0378
  445.0000      0.0374
  446.0000      0.0372
  447.0000      0.0370
  448.0000      0.0366
  449.0000      0.0364
  450.0000      0.0360
  451.0000      0.0358
  452.0000      0.0355
  453.0000      0.0353
  454.0000      0.0350
  455.0000      0.0349
  456.0000      0.0347
  457.0000      0.0344
  458.0000      0.0342
  459.0000      0.0341
  460.0000      0.0340
  461.0000      0.0339
  462.0000      0.0338
  463.0000      0.0338
  464.0000      0.0337
  465.0000      0.0338
  466.0000      0.0336
  467.0000      0.0336
  468.0000      0.0336
  469.0000      0.0334
  470.0000      0.0334
  471.0000      0.0332
  472.0000      0.0330
  473.0000      0.0328
  474.0000      0.0327
  475.0000      0.0326
  476.0000      0.0324
  477.0000      0.0323
  478.0000      0.0322
  479.0000      0.0321
  480.0000      0.0320
  481.0000      0.0319
  482.0000      0.0318
  483.0000      0.0317
  484.0000      0.0315
  485.0000      0.0314
  486.0000      0.0313
  487.0000      0.0312
  488.0000      0.0310
  489.0000      0.0309
  490.0000      0.0308
  491.0000      0.0306
  492.0000      0.0305
  493.0000      0.0303
  494.0000      0.0301
  495.0000      0.0299
  496.0000      0.0298
  497.0000      0.0296
  498.0000      0.0295
  499.0000      0.0293
  500.0000      0.0291
  501.0000      0.0290
  502.0000      0.0289
  503.0000      0.0287
  504.0000      0.0286
  505.0000      0.0285
  506.0000      0.0284
  507.0000      0.0283
  508.0000      0.0282
  509.0000      0.0281
  510.0000      0.0280
  511.0000      0.0279
  512.0000      0.0278
  513.0000      0.0276
  514.0000      0.0276
  515.0000      0.0274
  516.0000      0.0272
  517.0000      0.0272
  518.0000      0.0270
  519.0000      0.0269
  520.0000      0.0268
  521.0000      0.0266
  522.0000      0.0265
  523.0000      0.0264
  524.0000      0.0263
  525.0000      0.0261
  526.0000      0.0260
  527.0000      0.0259
  528.0000      0.0258
  529.0000      0.0257
  530.0000      0.0255
  531.0000      0.0255
  532.0000      0.0254
  533.0000      0.0252
  534.0000      0.0251
  535.0000      0.0250
  536.0000      0.0249
  537.0000      0.0247
  538.0000      0.0246
  539.0000      0.0245
  540.0000      0.0244
  541.0000      0.0243
  542.0000      0.0242
  543.0000      0.0241
  544.0000      0.0240
  545.0000      0.0239
  546.0000      0.0238
  547.0000      0.0238
  548.0000      0.0237
  549.0000      0.0236
  550.0000      0.0235
  551.0000      0.0234
  552.0000      0.0234
  553.0000      0.0233
  554.0000      0.0232
  555.0000      0.0231
  556.0000      0.0231
  557.0000      0.0238
  558.0000      0.0238
  559.0000      0.0238
  560.0000      0.0237
  561.0000      0.0236
  562.0000      0.0236
  563.0000      0.0234
  564.0000      0.0234
  565.0000      0.0234
  566.0000      0.0233
  567.0000      0.0233
  568.0000      0.0232
  569.0000      0.0232
  570.0000      0.0232
  571.0000      0.0231
  572.0000      0.0231
  573.0000      0.0230
  574.0000      0.0230
  575.0000      0.0230
  576.0000      0.0230
  577.0000      0.0229
  578.0000      0.0229
  579.0000      0.0228
  580.0000      0.0227
  581.0000      0.0227
  582.0000      0.0226
  583.0000      0.0226
  584.0000      0.0225
  585.0000      0.0224
  586.0000      0.0223
  587.0000      0.0222
  588.0000      0.0223
  589.0000      0.0222
  590.0000      0.0223
  591.0000      0.0223
  592.0000      0.0223
  593.0000      0.0222
  594.0000      0.0222
  595.0000      0.0222
  596.0000      0.0221
  597.0000      0.0221
  598.0000      0.0221
  599.0000      0.0220
  600.0000      0.0220
  601.0000      0.0220
  602.0000      0.0220
  603.0000      0.0219
  604.0000      0.0218
  605.0000      0.0217
  606.0000      0.0217
  607.0000      0.0216
  608.0000      0.0216
  609.0000      0.0216
  610.0000      0.0216
  611.0000      0.0216
  612.0000      0.0216
  613.0000      0.0216
  614.0000      0.0216
  615.0000      0.0216
  616.0000      0.0216
  617.0000      0.0216
  618.0000      0.0216
  619.0000      0.0216
  620.0000      0.0215
  621.0000      0.0215
  622.0000      0.0215
  623.0000      0.0214
  624.0000      0.0214
  625.0000      0.0214
  626.0000      0.0215
  627.0000      0.0215
  628.0000      0.0215
  629.0000      0.0215
  630.0000      0.0215
  631.0000      0.0214
  632.0000      0.0215
  633.0000      0.0214
  634.0000      0.0214
  635.0000      0.0214
  636.0000      0.0214
  637.0000      0.0214
  638.0000      0.0214
  639.0000      0.0213
  640.0000      0.0213
  641.0000      0.0213
  642.0000      0.0212
  643.0000      0.0212
  644.0000      0.0211
  645.0000      0.0211
  646.0000      0.0211
  647.0000      0.0211
  648.0000      0.0210
  649.0000      0.0210
  650.0000      0.0210
  651.0000      0.0209
  652.0000      0.0209
  653.0000      0.0209
  654.0000      0.0209
  655.0000      0.0209
  656.0000      0.0209
  657.0000      0.0209
  658.0000      0.0209
  659.0000      0.0209
  660.0000      0.0210
  661.0000      0.0210
  662.0000      0.0211
  663.0000      0.0212
  664.0000      0.0213
  665.0000      0.0214
  666.0000      0.0215
  667.0000      0.0216
  668.0000      0.0217
  669.0000      0.0218
  670.0000      0.0219
  671.0000      0.0219
  672.0000      0.0220
  673.0000      0.0221
  674.0000      0.0222
  675.0000      0.0222
  676.0000      0.0223
  677.0000      0.0224
  678.0000      0.0224
  679.0000      0.0224
  680.0000      0.0225
  681.0000      0.0225
  682.0000      0.0225
  683.0000      0.0224
  684.0000      0.0223
  685.0000      0.0222
  686.0000      0.0220
  687.0000      0.0219
  688.0000      0.0216
  689.0000      0.0215
  690.0000      0.0212
  691.0000      0.0210
  692.0000      0.0208
  693.0000      0.0206
  694.0000      0.0203
  695.0000      0.0201
  696.0000      0.0200
  697.0000      0.0198
  698.0000      0.0196
  699.0000      0.0194
  700.0000      0.0193
  701.0000      0.0192
  702.0000      0.0190
  703.0000      0.0190
  704.0000      0.0188
  705.0000      0.0188
  706.0000      0.0187
  707.0000      0.0185
  708.0000      0.0184
  709.0000      0.0184
  710.0000      0.0183
  711.0000      0.0182
  712.0000      0.0182
  713.0000      0.0181
  714.0000      0.0180
  715.0000      0.0179
  716.0000      0.0179
  717.0000      0.0178
  718.0000      0.0178
  719.0000      0.0177
  720.0000      0.0176
  721.0000      0.0176
  722.0000      0.0175
  723.0000      0.0175
  724.0000      0.0174
  725.0000      0.0174
  726.0000      0.0173
  727.0000      0.0172
  728.0000      0.0171
  729.0000      0.0170
  730.0000      0.0170
  731.0000      0.0169
  732.0000      0.0169
  733.0000      0.0168
  734.0000      0.0168
  735.0000      0.0167
  736.0000      0.0169
  737.0000      0.0169
  738.0000      0.0168
  739.0000      0.0168
  740.0000      0.0167
  741.0000      0.0167
  742.0000      0.0166
  743.0000      0.0166
  744.0000      0.0166
  745.0000      0.0165
  746.0000      0.0166
  747.0000      0.0165
  748.0000      0.0165
  749.0000      0.0165
  750.0000      0.0165
  751.0000      0.0164
  752.0000      0.0164
  753.0000      0.0164
  754.0000      0.0164
  755.0000      0.0164
  756.0000      0.0164
  757.0000      0.0164
  758.0000      0.0164
  759.0000      0.0164
  760.0000      0.0164
  761.0000      0.0164
  762.0000      0.0163
  763.0000      0.0163
  764.0000      0.0163
  765.0000      0.0163
  766.0000      0.0162
  767.0000      0.0162
  768.0000      0.0162
  769.0000      0.0162
  770.0000      0.0162
  771.0000      0.0161
  772.0000      0.0161
  773.0000      0.0161
  774.0000      0.0159
  775.0000      0.0159
  776.0000      0.0159
  777.0000      0.0159
  778.0000      0.0158
  779.0000      0.0158
  780.0000      0.0157
  781.0000      0.0156
  782.0000      0.0156
  783.0000      0.0156
  784.0000      0.0155
  785.0000      0.0154
  786.0000      0.0154
  787.0000      0.0154
  788.0000      0.0153
  789.0000      0.0153
  790.0000      0.0153
  791.0000      0.0152
  792.0000      0.0153
  793.0000      0.0152
  794.0000      0.0153
  795.0000      0.0152
  796.0000      0.0152
  797.0000      0.0151
  798.0000      0.0151
  799.0000      0.0151
  800.0000      0.0150
