Start Wavelength:    200.0000
End Wavelength:    800.0000
Read Mode:  ABS
Read Average:      0.1000
Nanometer Interval:      1.0000
Time:      0.0000

  200.0000      0.5267
  201.0000      0.4832
  202.0000      0.4581
  203.0000      0.4368
  204.0000      0.4145
  205.0000      0.3966
  206.0000      0.3816
  207.0000      0.3667
  208.0000      0.3531
  209.0000      0.3402
  210.0000      0.3278
  211.0000      0.3179
  212.0000      0.3080
  213.0000      0.2977
  214.0000      0.2896
  215.0000      0.2817
  216.0000      0.2741
  217.0000      0.2658
  218.0000      0.2607
  219.0000      0.2538
  220.0000      0.2488
  221.0000      0.2423
  222.0000      0.2373
  223.0000      0.2320
  224.0000      0.2278
  225.0000      0.2228
  226.0000      0.2179
  227.0000      0.2141
  228.0000      0.2092
  229.0000      0.2046
  230.0000      0.2008
  231.0000      0.1961
  232.0000      0.1925
  233.0000      0.1881
  234.0000      0.1843
  235.0000      0.1805
  236.0000      0.1777
  237.0000      0.1738
  238.0000      0.1711
  239.0000      0.1681
  240.0000      0.1661
  241.0000      0.1635
  242.0000      0.1621
  243.0000      0.1599
  244.0000      0.1587
  245.0000      0.1568
  246.0000      0.1550
  247.0000      0.1541
  248.0000      0.1525
  249.0000      0.1512
  250.0000      0.1499
  251.0000      0.1492
  252.0000      0.1480
  253.0000      0.1472
  254.0000      0.1461
  255.0000      0.1446
  256.0000      0.1439
  257.0000      0.1431
  258.0000      0.1423
  259.0000      0.1418
  260.0000      0.1409
  261.0000      0.1396
  262.0000      0.1390
  263.0000      0.1383
  264.0000      0.1369
  265.0000      0.1360
  266.0000      0.1346
  267.0000      0.1340
  268.0000      0.1325
  269.0000      0.1321
  270.0000      0.1305
  271.0000      0.1298
  272.0000      0.1281
  273.0000      0.1273
  274.0000      0.1255
  275.0000      0.1248
  276.0000      0.1235
  277.0000      0.1222
  278.0000      0.1210
  279.0000      0.1194
  280.0000      0.1182
  281.0000      0.1170
  282.0000      0.1153
  283.0000      0.1144
  284.0000      0.1126
  285.0000      0.1115
  286.0000      0.1095
  287.0000      0.1093
  288.0000      0.1063
  289.0000      0.1055
  290.0000      0.1031
  291.0000      0.1022
  292.0000      0.0999
  293.0000      0.0988
  294.0000      0.0972
  295.0000      0.0959
  296.0000      0.0939
  297.0000      0.0926
  298.0000      0.0915
  299.0000      0.0899
  300.0000      0.0887
  301.0000      0.0869
  302.0000      0.0855
  303.0000      0.0844
  304.0000      0.0833
  305.0000      0.0822
  306.0000      0.0804
  307.0000      0.0798
  308.0000      0.0782
  309.0000      0.0781
  310.0000      0.0766
  311.0000      0.0758
  312.0000      0.0744
  313.0000      0.0745
  314.0000      0.0732
  315.0000      0.0723
  316.0000      0.0717
  317.0000      0.0708
  318.0000      0.0699
  319.0000      0.0696
  320.0000      0.0687
  321.0000      0.0680
  322.0000      0.0675
  323.0000      0.0661
  324.0000      0.0661
  325.0000      0.0652
  326.0000      0.0652
  327.0000      0.0642
  328.0000      0.0641
  329.0000      0.0637
  330.0000      0.0632
  331.0000      0.0628
  332.0000      0.0623
  333.0000      0.0620
  334.0000      0.0610
  335.0000      0.0609
  336.0000      0.0603
  337.0000      0.0601
  338.0000      0.0594
  339.0000      0.0594
  340.0000      0.0590
  341.0000      0.0586
  342.0000      0.0588
  343.0000      0.0580
  344.0000      0.0578
  345.0000      0.0571
  346.0000      0.0574
  347.0000      0.0568
  348.0000      0.0569
  349.0000      0.0566
  350.0000      0.0565
  351.0000      0.0556
  352.0000      0.0558
  353.0000      0.0559
  354.0000      0.0556
  355.0000      0.0552
  356.0000      0.0552
  357.0000      0.0548
  358.0000      0.0550
  359.0000      0.0536
  360.0000      0.0550
  361.0000      0.0526
  362.0000      0.0541
  363.0000      0.0526
  364.0000      0.0545
  365.0000      0.0524
  366.0000      0.0533
  367.0000      0.0510
  368.0000      0.0531
  369.0000      0.0524
  370.0000      0.0512
  371.0000      0.0516
  372.0000      0.0508
  373.0000      0.0510
  374.0000      0.0505
  375.0000      0.0499
  376.0000      0.0502
  377.0000      0.0502
  378.0000      0.0500
  379.0000      0.0492
  380.0000      0.0505
  381.0000      0.0482
  382.0000      0.0495
  383.0000      0.0479
  384.0000      0.0488
  385.0000      0.0484
  386.0000      0.0486
  387.0000      0.0478
  388.0000      0.0484
  389.0000      0.0480
  390.0000      0.0478
  391.0000      0.0478
  392.0000      0.0474
  393.0000      0.0476
  394.0000      0.0479
  395.0000      0.0473
  396.0000      0.0475
  397.0000      0.0468
  398.0000      0.0476
  399.0000      0.0470
  400.0000      0.0471
  401.0000      0.0467
  402.0000      0.0472
  403.0000      0.0464
  404.0000      0.0468
  405.0000      0.0463
  406.0000      0.0462
  407.0000      0.0459
  408.0000      0.0462
  409.0000      0.0460
  410.0000      0.0456
  411.0000      0.0454
  412.0000      0.0456
  413.0000      0.0453
  414.0000      0.0450
  415.0000      0.0452
  416.0000      0.0449
  417.0000      0.0447
  418.0000      0.0447
  419.0000      0.0446
  420.0000      0.0445
  421.0000      0.0443
  422.0000      0.0441
  423.0000      0.0442
  424.0000      0.0439
  425.0000      0.0440
  426.0000      0.0438
  427.0000      0.0438
  428.0000      0.0437
  429.0000      0.0438
  430.0000      0.0437
  431.0000      0.0438
  432.0000      0.0439
  433.0000      0.0440
  434.0000      0.0439
  435.0000      0.0439
  436.0000      0.0438
  437.0000      0.0436
  438.0000      0.0433
  439.0000      0.0432
  440.0000      0.0431
  441.0000      0.0429
  442.0000      0.0427
  443.0000      0.0425
  444.0000      0.0423
  445.0000      0.0420
  446.0000      0.0418
  447.0000      0.0417
  448.0000      0.0415
  449.0000      0.0412
  450.0000      0.0410
  451.0000      0.0409
  452.0000      0.0407
  453.0000      0.0406
  454.0000      0.0404
  455.0000      0.0403
  456.0000      0.0400
  457.0000      0.0399
  458.0000      0.0397
  459.0000      0.0396
  460.0000      0.0395
  461.0000      0.0394
  462.0000      0.0393
  463.0000      0.0392
  464.0000      0.0392
  465.0000      0.0391
  466.0000      0.0390
  467.0000      0.0389
  468.0000      0.0388
  469.0000      0.0387
  470.0000      0.0387
  471.0000      0.0385
  472.0000      0.0384
  473.0000      0.0382
  474.0000      0.0382
  475.0000      0.0382
  476.0000      0.0381
  477.0000      0.0380
  478.0000      0.0379
  479.0000      0.0379
  480.0000      0.0377
  481.0000      0.0376
  482.0000      0.0375
  483.0000      0.0374
  484.0000      0.0372
  485.0000      0.0371
  486.0000      0.0371
  487.0000      0.0370
  488.0000      0.0369
  489.0000      0.0369
  490.0000      0.0368
  491.0000      0.0367
  492.0000      0.0366
  493.0000      0.0365
  494.0000      0.0364
  495.0000      0.0362
  496.0000      0.0361
  497.0000      0.0359
  498.0000      0.0357
  499.0000      0.0356
  500.0000      0.0354
  501.0000      0.0352
  502.0000      0.0351
  503.0000      0.0349
  504.0000      0.0348
  505.0000      0.0347
  506.0000      0.0345
  507.0000      0.0345
  508.0000      0.0344
  509.0000      0.0344
  510.0000      0.0343
  511.0000      0.0342
  512.0000      0.0341
  513.0000      0.0338
  514.0000      0.0337
  515.0000      0.0336
  516.0000      0.0335
  517.0000      0.0335
  518.0000      0.0334
  519.0000      0.0333
  520.0000      0.0332
  521.0000      0.0331
  522.0000      0.0330
  523.0000      0.0329
  524.0000      0.0328
  525.0000      0.0328
  526.0000      0.0327
  527.0000      0.0327
  528.0000      0.0328
  529.0000      0.0328
  530.0000      0.0328
  531.0000      0.0328
  532.0000      0.0327
  533.0000      0.0325
  534.0000      0.0323
  535.0000      0.0321
  536.0000      0.0320
  537.0000      0.0318
  538.0000      0.0318
  539.0000      0.0316
  540.0000      0.0315
  541.0000      0.0315
  542.0000      0.0316
  543.0000      0.0315
  544.0000      0.0315
  545.0000      0.0315
  546.0000      0.0314
  547.0000      0.0312
  548.0000      0.0311
  549.0000      0.0309
  550.0000      0.0306
  551.0000      0.0303
  552.0000      0.0301
  553.0000      0.0300
  554.0000      0.0298
  555.0000      0.0297
  556.0000      0.0296
  557.0000      0.0294
  558.0000      0.0294
  559.0000      0.0293
  560.0000      0.0291
  561.0000      0.0290
  562.0000      0.0289
  563.0000      0.0288
  564.0000      0.0287
  565.0000      0.0286
  566.0000      0.0285
  567.0000      0.0284
  568.0000      0.0282
  569.0000      0.0281
  570.0000      0.0281
  571.0000      0.0280
  572.0000      0.0280
  573.0000      0.0280
  574.0000      0.0281
  575.0000      0.0280
  576.0000      0.0280
  577.0000      0.0279
  578.0000      0.0278
  579.0000      0.0276
  580.0000      0.0276
  581.0000      0.0275
  582.0000      0.0273
  583.0000      0.0272
  584.0000      0.0272
  585.0000      0.0271
  586.0000      0.0270
  587.0000      0.0270
  588.0000      0.0269
  589.0000      0.0269
  590.0000      0.0268
  591.0000      0.0268
  592.0000      0.0268
  593.0000      0.0267
  594.0000      0.0267
  595.0000      0.0265
  596.0000      0.0263
  597.0000      0.0261
  598.0000      0.0260
  599.0000      0.0259
  600.0000      0.0258
  601.0000      0.0258
  602.0000      0.0256
  603.0000      0.0255
  604.0000      0.0255
  605.0000      0.0255
  606.0000      0.0254
  607.0000      0.0254
  608.0000      0.0254
  609.0000      0.0255
  610.0000      0.0256
  611.0000      0.0257
  612.0000      0.0258
  613.0000      0.0259
  614.0000      0.0260
  615.0000      0.0262
  616.0000      0.0263
  617.0000      0.0264
  618.0000      0.0265
  619.0000      0.0266
  620.0000      0.0266
  621.0000      0.0267
  622.0000      0.0267
  623.0000      0.0267
  624.0000      0.0266
  625.0000      0.0266
  626.0000      0.0266
  627.0000      0.0266
  628.0000      0.0266
  629.0000      0.0266
  630.0000      0.0267
  631.0000      0.0266
  632.0000      0.0266
  633.0000      0.0265
  634.0000      0.0264
  635.0000      0.0262
  636.0000      0.0261
  637.0000      0.0259
  638.0000      0.0257
  639.0000      0.0257
  640.0000      0.0256
  641.0000      0.0256
  642.0000      0.0255
  643.0000      0.0255
  644.0000      0.0255
  645.0000      0.0256
  646.0000      0.0256
  647.0000      0.0257
  648.0000      0.0257
  649.0000      0.0257
  650.0000      0.0256
  651.0000      0.0256
  652.0000      0.0256
  653.0000      0.0255
  654.0000      0.0256
  655.0000      0.0256
  656.0000      0.0256
  657.0000      0.0255
  658.0000      0.0255
  659.0000      0.0255
  660.0000      0.0255
  661.0000      0.0255
  662.0000      0.0255
  663.0000      0.0255
  664.0000      0.0256
  665.0000      0.0256
  666.0000      0.0257
  667.0000      0.0258
  668.0000      0.0259
  669.0000      0.0259
  670.0000      0.0259
  671.0000      0.0259
  672.0000      0.0259
  673.0000      0.0259
  674.0000      0.0260
  675.0000      0.0260
  676.0000      0.0260
  677.0000      0.0260
  678.0000      0.0260
  679.0000      0.0259
  680.0000      0.0259
  681.0000      0.0257
  682.0000      0.0257
  683.0000      0.0256
  684.0000      0.0256
  685.0000      0.0255
  686.0000      0.0254
  687.0000      0.0253
  688.0000      0.0252
  689.0000      0.0250
  690.0000      0.0249
  691.0000      0.0247
  692.0000      0.0245
  693.0000      0.0244
  694.0000      0.0242
  695.0000      0.0241
  696.0000      0.0240
  697.0000      0.0238
  698.0000      0.0238
  699.0000      0.0237
  700.0000      0.0238
  701.0000      0.0238
  702.0000      0.0237
  703.0000      0.0238
  704.0000      0.0239
  705.0000      0.0239
  706.0000      0.0239
  707.0000      0.0240
  708.0000      0.0240
  709.0000      0.0240
  710.0000      0.0240
  711.0000      0.0240
  712.0000      0.0239
  713.0000      0.0239
  714.0000      0.0239
  715.0000      0.0238
  716.0000      0.0237
  717.0000      0.0236
  718.0000      0.0235
  719.0000      0.0233
  720.0000      0.0230
  721.0000      0.0227
  722.0000      0.0225
  723.0000      0.0224
  724.0000      0.0222
  725.0000      0.0221
  726.0000      0.0220
  727.0000      0.0219
  728.0000      0.0218
  729.0000      0.0217
  730.0000      0.0216
  731.0000      0.0214
  732.0000      0.0214
  733.0000      0.0212
  734.0000      0.0212
  735.0000      0.0211
  736.0000      0.0204
  737.0000      0.0204
  738.0000      0.0205
  739.0000      0.0205
  740.0000      0.0206
  741.0000      0.0207
  742.0000      0.0206
  743.0000      0.0207
  744.0000      0.0208
  745.0000      0.0208
  746.0000      0.0210
  747.0000      0.0209
  748.0000      0.0209
  749.0000      0.0209
  750.0000      0.0209
  751.0000      0.0209
  752.0000      0.0208
  753.0000      0.0208
  754.0000      0.0208
  755.0000      0.0207
  756.0000      0.0206
  757.0000      0.0206
  758.0000      0.0204
  759.0000      0.0204
  760.0000      0.0203
  761.0000      0.0202
  762.0000      0.0202
  763.0000      0.0201
  764.0000      0.0200
  765.0000      0.0201
  766.0000      0.0200
  767.0000      0.0200
  768.0000      0.0201
  769.0000      0.0203
  770.0000      0.0204
  771.0000      0.0203
  772.0000      0.0204
  773.0000      0.0204
  774.0000      0.0204
  775.0000      0.0203
  776.0000      0.0204
  777.0000      0.0204
  778.0000      0.0205
  779.0000      0.0206
  780.0000      0.0206
  781.0000      0.0206
  782.0000      0.0207
  783.0000      0.0207
  784.0000      0.0207
  785.0000      0.0207
  786.0000      0.0208
  787.0000      0.0207
  788.0000      0.0207
  789.0000      0.0207
  790.0000      0.0207
  791.0000      0.0206
  792.0000      0.0206
  793.0000      0.0204
  794.0000      0.0204
  795.0000      0.0203
  796.0000      0.0202
  797.0000      0.0201
  798.0000      0.0200
  799.0000      0.0200
  800.0000      0.0200
