Start Wavelength:    200.0000
End Wavelength:    800.0000
Read Mode:  ABS
Read Average:      0.1000
Nanometer Interval:      1.0000
Time:      0.0000

  200.0000      0.5322
  201.0000      0.4889
  202.0000      0.4654
  203.0000      0.4441
  204.0000      0.4251
  205.0000      0.4063
  206.0000      0.3923
  207.0000      0.3773
  208.0000      0.3642
  209.0000      0.3520
  210.0000      0.3416
  211.0000      0.3304
  212.0000      0.3221
  213.0000      0.3125
  214.0000      0.3033
  215.0000      0.2960
  216.0000      0.2888
  217.0000      0.2808
  218.0000      0.2757
  219.0000      0.2694
  220.0000      0.2636
  221.0000      0.2576
  222.0000      0.2529
  223.0000      0.2472
  224.0000      0.2435
  225.0000      0.2382
  226.0000      0.2335
  227.0000      0.2296
  228.0000      0.2254
  229.0000      0.2206
  230.0000      0.2171
  231.0000      0.2124
  232.0000      0.2086
  233.0000      0.2043
  234.0000      0.2007
  235.0000      0.1973
  236.0000      0.1940
  237.0000      0.1908
  238.0000      0.1882
  239.0000      0.1855
  240.0000      0.1836
  241.0000      0.1811
  242.0000      0.1795
  243.0000      0.1780
  244.0000      0.1765
  245.0000      0.1750
  246.0000      0.1730
  247.0000      0.1720
  248.0000      0.1709
  249.0000      0.1693
  250.0000      0.1684
  251.0000      0.1672
  252.0000      0.1665
  253.0000      0.1651
  254.0000      0.1644
  255.0000      0.1634
  256.0000      0.1624
  257.0000      0.1616
  258.0000      0.1607
  259.0000      0.1597
  260.0000      0.1586
  261.0000      0.1573
  262.0000      0.1563
  263.0000      0.1553
  264.0000      0.1539
  265.0000      0.1537
  266.0000      0.1515
  267.0000      0.1509
  268.0000      0.1502
  269.0000      0.1487
  270.0000      0.1474
  271.0000      0.1464
  272.0000      0.1447
  273.0000      0.1439
  274.0000      0.1418
  275.0000      0.1408
  276.0000      0.1392
  277.0000      0.1383
  278.0000      0.1363
  279.0000      0.1349
  280.0000      0.1336
  281.0000      0.1322
  282.0000      0.1302
  283.0000      0.1298
  284.0000      0.1270
  285.0000      0.1270
  286.0000      0.1250
  287.0000      0.1233
  288.0000      0.1220
  289.0000      0.1203
  290.0000      0.1184
  291.0000      0.1172
  292.0000      0.1148
  293.0000      0.1136
  294.0000      0.1112
  295.0000      0.1107
  296.0000      0.1085
  297.0000      0.1070
  298.0000      0.1057
  299.0000      0.1043
  300.0000      0.1029
  301.0000      0.1019
  302.0000      0.1003
  303.0000      0.0994
  304.0000      0.0983
  305.0000      0.0968
  306.0000      0.0956
  307.0000      0.0946
  308.0000      0.0934
  309.0000      0.0923
  310.0000      0.0915
  311.0000      0.0903
  312.0000      0.0891
  313.0000      0.0889
  314.0000      0.0876
  315.0000      0.0874
  316.0000      0.0861
  317.0000      0.0858
  318.0000      0.0849
  319.0000      0.0845
  320.0000      0.0837
  321.0000      0.0829
  322.0000      0.0832
  323.0000      0.0825
  324.0000      0.0815
  325.0000      0.0810
  326.0000      0.0807
  327.0000      0.0801
  328.0000      0.0794
  329.0000      0.0792
  330.0000      0.0789
  331.0000      0.0785
  332.0000      0.0779
  333.0000      0.0772
  334.0000      0.0766
  335.0000      0.0762
  336.0000      0.0757
  337.0000      0.0757
  338.0000      0.0752
  339.0000      0.0744
  340.0000      0.0744
  341.0000      0.0739
  342.0000      0.0738
  343.0000      0.0734
  344.0000      0.0732
  345.0000      0.0720
  346.0000      0.0725
  347.0000      0.0718
  348.0000      0.0712
  349.0000      0.0711
  350.0000      0.0712
  351.0000      0.0697
  352.0000      0.0700
  353.0000      0.0693
  354.0000      0.0692
  355.0000      0.0688
  356.0000      0.0691
  357.0000      0.0693
  358.0000      0.0669
  359.0000      0.0682
  360.0000      0.0672
  361.0000      0.0664
  362.0000      0.0675
  363.0000      0.0669
  364.0000      0.0667
  365.0000      0.0662
  366.0000      0.0667
  367.0000      0.0650
  368.0000      0.0663
  369.0000      0.0648
  370.0000      0.0664
  371.0000      0.0649
  372.0000      0.0658
  373.0000      0.0638
  374.0000      0.0647
  375.0000      0.0645
  376.0000      0.0642
  377.0000      0.0637
  378.0000      0.0651
  379.0000      0.0637
  380.0000      0.0637
  381.0000      0.0633
  382.0000      0.0628
  383.0000      0.0629
  384.0000      0.0637
  385.0000      0.0624
  386.0000      0.0633
  387.0000      0.0626
  388.0000      0.0624
  389.0000      0.0623
  390.0000      0.0629
  391.0000      0.0617
  392.0000      0.0625
  393.0000      0.0623
  394.0000      0.0615
  395.0000      0.0622
  396.0000      0.0622
  397.0000      0.0607
  398.0000      0.0615
  399.0000      0.0615
  400.0000      0.0604
  401.0000      0.0609
  402.0000      0.0611
  403.0000      0.0606
  404.0000      0.0609
  405.0000      0.0604
  406.0000      0.0602
  407.0000      0.0604
  408.0000      0.0606
  409.0000      0.0599
  410.0000      0.0598
  411.0000      0.0598
  412.0000      0.0600
  413.0000      0.0599
  414.0000      0.0595
  415.0000      0.0594
  416.0000      0.0575
  417.0000      0.0575
  418.0000      0.0574
  419.0000      0.0571
  420.0000      0.0570
  421.0000      0.0570
  422.0000      0.0566
  423.0000      0.0567
  424.0000      0.0564
  425.0000      0.0564
  426.0000      0.0563
  427.0000      0.0562
  428.0000      0.0560
  429.0000      0.0561
  430.0000      0.0558
  431.0000      0.0558
  432.0000      0.0557
  433.0000      0.0558
  434.0000      0.0555
  435.0000      0.0556
  436.0000      0.0555
  437.0000      0.0553
  438.0000      0.0551
  439.0000      0.0551
  440.0000      0.0550
  441.0000      0.0548
  442.0000      0.0547
  443.0000      0.0544
  444.0000      0.0543
  445.0000      0.0541
  446.0000      0.0538
  447.0000      0.0537
  448.0000      0.0534
  449.0000      0.0531
  450.0000      0.0528
  451.0000      0.0525
  452.0000      0.0522
  453.0000      0.0520
  454.0000      0.0517
  455.0000      0.0515
  456.0000      0.0513
  457.0000      0.0511
  458.0000      0.0509
  459.0000      0.0508
  460.0000      0.0506
  461.0000      0.0506
  462.0000      0.0505
  463.0000      0.0505
  464.0000      0.0504
  465.0000      0.0504
  466.0000      0.0504
  467.0000      0.0503
  468.0000      0.0502
  469.0000      0.0501
  470.0000      0.0500
  471.0000      0.0498
  472.0000      0.0495
  473.0000      0.0493
  474.0000      0.0491
  475.0000      0.0489
  476.0000      0.0487
  477.0000      0.0485
  478.0000      0.0483
  479.0000      0.0481
  480.0000      0.0479
  481.0000      0.0478
  482.0000      0.0477
  483.0000      0.0476
  484.0000      0.0474
  485.0000      0.0473
  486.0000      0.0472
  487.0000      0.0471
  488.0000      0.0470
  489.0000      0.0469
  490.0000      0.0467
  491.0000      0.0467
  492.0000      0.0465
  493.0000      0.0462
  494.0000      0.0461
  495.0000      0.0459
  496.0000      0.0458
  497.0000      0.0456
  498.0000      0.0455
  499.0000      0.0453
  500.0000      0.0452
  501.0000      0.0450
  502.0000      0.0448
  503.0000      0.0446
  504.0000      0.0445
  505.0000      0.0442
  506.0000      0.0441
  507.0000      0.0440
  508.0000      0.0438
  509.0000      0.0437
  510.0000      0.0436
  511.0000      0.0434
  512.0000      0.0432
  513.0000      0.0429
  514.0000      0.0427
  515.0000      0.0425
  516.0000      0.0423
  517.0000      0.0422
  518.0000      0.0419
  519.0000      0.0417
  520.0000      0.0415
  521.0000      0.0414
  522.0000      0.0413
  523.0000      0.0411
  524.0000      0.0410
  525.0000      0.0409
  526.0000      0.0408
  527.0000      0.0407
  528.0000      0.0406
  529.0000      0.0404
  530.0000      0.0402
  531.0000      0.0401
  532.0000      0.0399
  533.0000      0.0398
  534.0000      0.0397
  535.0000      0.0395
  536.0000      0.0392
  537.0000      0.0390
  538.0000      0.0388
  539.0000      0.0386
  540.0000      0.0385
  541.0000      0.0384
  542.0000      0.0383
  543.0000      0.0382
  544.0000      0.0381
  545.0000      0.0380
  546.0000      0.0379
  547.0000      0.0379
  548.0000      0.0377
  549.0000      0.0376
  550.0000      0.0375
  551.0000      0.0373
  552.0000      0.0373
  553.0000      0.0372
  554.0000      0.0371
  555.0000      0.0370
  556.0000      0.0369
  557.0000      0.0379
  558.0000      0.0378
  559.0000      0.0378
  560.0000      0.0377
  561.0000      0.0376
  562.0000      0.0376
  563.0000      0.0375
  564.0000      0.0375
  565.0000      0.0374
  566.0000      0.0373
  567.0000      0.0373
  568.0000      0.0372
  569.0000      0.0371
  570.0000      0.0371
  571.0000      0.0370
  572.0000      0.0370
  573.0000      0.0369
  574.0000      0.0368
  575.0000      0.0367
  576.0000      0.0367
  577.0000      0.0365
  578.0000      0.0364
  579.0000      0.0363
  580.0000      0.0362
  581.0000      0.0361
  582.0000      0.0360
  583.0000      0.0358
  584.0000      0.0358
  585.0000      0.0356
  586.0000      0.0355
  587.0000      0.0355
  588.0000      0.0354
  589.0000      0.0354
  590.0000      0.0354
  591.0000      0.0354
  592.0000      0.0354
  593.0000      0.0353
  594.0000      0.0353
  595.0000      0.0352
  596.0000      0.0351
  597.0000      0.0350
  598.0000      0.0350
  599.0000      0.0350
  600.0000      0.0349
  601.0000      0.0350
  602.0000      0.0349
  603.0000      0.0349
  604.0000      0.0348
  605.0000      0.0348
  606.0000      0.0347
  607.0000      0.0347
  608.0000      0.0347
  609.0000      0.0347
  610.0000      0.0348
  611.0000      0.0348
  612.0000      0.0348
  613.0000      0.0347
  614.0000      0.0348
  615.0000      0.0347
  616.0000      0.0347
  617.0000      0.0346
  618.0000      0.0345
  619.0000      0.0345
  620.0000      0.0344
  621.0000      0.0343
  622.0000      0.0342
  623.0000      0.0342
  624.0000      0.0342
  625.0000      0.0341
  626.0000      0.0341
  627.0000      0.0341
  628.0000      0.0340
  629.0000      0.0340
  630.0000      0.0339
  631.0000      0.0338
  632.0000      0.0337
  633.0000      0.0336
  634.0000      0.0335
  635.0000      0.0334
  636.0000      0.0333
  637.0000      0.0332
  638.0000      0.0331
  639.0000      0.0330
  640.0000      0.0328
  641.0000      0.0327
  642.0000      0.0326
  643.0000      0.0325
  644.0000      0.0324
  645.0000      0.0323
  646.0000      0.0323
  647.0000      0.0323
  648.0000      0.0323
  649.0000      0.0322
  650.0000      0.0323
  651.0000      0.0323
  652.0000      0.0323
  653.0000      0.0323
  654.0000      0.0324
  655.0000      0.0323
  656.0000      0.0323
  657.0000      0.0324
  658.0000      0.0324
  659.0000      0.0325
  660.0000      0.0327
  661.0000      0.0328
  662.0000      0.0329
  663.0000      0.0330
  664.0000      0.0331
  665.0000      0.0332
  666.0000      0.0333
  667.0000      0.0335
  668.0000      0.0336
  669.0000      0.0337
  670.0000      0.0338
  671.0000      0.0339
  672.0000      0.0339
  673.0000      0.0339
  674.0000      0.0340
  675.0000      0.0339
  676.0000      0.0339
  677.0000      0.0339
  678.0000      0.0339
  679.0000      0.0338
  680.0000      0.0337
  681.0000      0.0336
  682.0000      0.0335
  683.0000      0.0333
  684.0000      0.0332
  685.0000      0.0330
  686.0000      0.0328
  687.0000      0.0326
  688.0000      0.0323
  689.0000      0.0321
  690.0000      0.0319
  691.0000      0.0316
  692.0000      0.0314
  693.0000      0.0312
  694.0000      0.0309
  695.0000      0.0307
  696.0000      0.0305
  697.0000      0.0302
  698.0000      0.0301
  699.0000      0.0299
  700.0000      0.0297
  701.0000      0.0296
  702.0000      0.0295
  703.0000      0.0293
  704.0000      0.0292
  705.0000      0.0291
  706.0000      0.0289
  707.0000      0.0289
  708.0000      0.0288
  709.0000      0.0287
  710.0000      0.0287
  711.0000      0.0286
  712.0000      0.0285
  713.0000      0.0285
  714.0000      0.0285
  715.0000      0.0284
  716.0000      0.0284
  717.0000      0.0283
  718.0000      0.0283
  719.0000      0.0282
  720.0000      0.0282
  721.0000      0.0283
  722.0000      0.0283
  723.0000      0.0282
  724.0000      0.0282
  725.0000      0.0283
  726.0000      0.0283
  727.0000      0.0284
  728.0000      0.0284
  729.0000      0.0284
  730.0000      0.0284
  731.0000      0.0283
  732.0000      0.0283
  733.0000      0.0282
  734.0000      0.0281
  735.0000      0.0280
  736.0000      0.0270
  737.0000      0.0269
  738.0000      0.0268
  739.0000      0.0268
  740.0000      0.0267
  741.0000      0.0267
  742.0000      0.0266
  743.0000      0.0266
  744.0000      0.0266
  745.0000      0.0265
  746.0000      0.0265
  747.0000      0.0265
  748.0000      0.0266
  749.0000      0.0265
  750.0000      0.0265
  751.0000      0.0265
  752.0000      0.0265
  753.0000      0.0265
  754.0000      0.0265
  755.0000      0.0265
  756.0000      0.0265
  757.0000      0.0265
  758.0000      0.0264
  759.0000      0.0265
  760.0000      0.0265
  761.0000      0.0264
  762.0000      0.0265
  763.0000      0.0264
  764.0000      0.0264
  765.0000      0.0264
  766.0000      0.0264
  767.0000      0.0263
  768.0000      0.0264
  769.0000      0.0264
  770.0000      0.0264
  771.0000      0.0264
  772.0000      0.0265
  773.0000      0.0264
  774.0000      0.0264
  775.0000      0.0264
  776.0000      0.0263
  777.0000      0.0263
  778.0000      0.0263
  779.0000      0.0263
  780.0000      0.0263
  781.0000      0.0263
  782.0000      0.0262
  783.0000      0.0262
  784.0000      0.0262
  785.0000      0.0262
  786.0000      0.0262
  787.0000      0.0261
  788.0000      0.0261
  789.0000      0.0262
  790.0000      0.0260
  791.0000      0.0260
  792.0000      0.0260
  793.0000      0.0259
  794.0000      0.0259
  795.0000      0.0258
  796.0000      0.0257
  797.0000      0.0256
  798.0000      0.0255
  799.0000      0.0254
  800.0000      0.0254
