Start Wavelength:    200.0000
End Wavelength:    800.0000
Read Mode:  ABS
Read Average:      0.1000
Nanometer Interval:      1.0000
Time:      0.0000

  200.0000      0.5421
  201.0000      0.5001
  202.0000      0.4769
  203.0000      0.4560
  204.0000      0.4332
  205.0000      0.4168
  206.0000      0.4010
  207.0000      0.3867
  208.0000      0.3743
  209.0000      0.3608
  210.0000      0.3488
  211.0000      0.3382
  212.0000      0.3293
  213.0000      0.3194
  214.0000      0.3104
  215.0000      0.3035
  216.0000      0.2958
  217.0000      0.2881
  218.0000      0.2820
  219.0000      0.2763
  220.0000      0.2708
  221.0000      0.2647
  222.0000      0.2598
  223.0000      0.2548
  224.0000      0.2510
  225.0000      0.2457
  226.0000      0.2415
  227.0000      0.2374
  228.0000      0.2329
  229.0000      0.2287
  230.0000      0.2246
  231.0000      0.2200
  232.0000      0.2163
  233.0000      0.2119
  234.0000      0.2080
  235.0000      0.2043
  236.0000      0.2013
  237.0000      0.1975
  238.0000      0.1948
  239.0000      0.1923
  240.0000      0.1896
  241.0000      0.1872
  242.0000      0.1854
  243.0000      0.1831
  244.0000      0.1814
  245.0000      0.1797
  246.0000      0.1777
  247.0000      0.1764
  248.0000      0.1749
  249.0000      0.1733
  250.0000      0.1720
  251.0000      0.1708
  252.0000      0.1696
  253.0000      0.1686
  254.0000      0.1677
  255.0000      0.1666
  256.0000      0.1650
  257.0000      0.1647
  258.0000      0.1636
  259.0000      0.1624
  260.0000      0.1613
  261.0000      0.1602
  262.0000      0.1594
  263.0000      0.1580
  264.0000      0.1566
  265.0000      0.1558
  266.0000      0.1543
  267.0000      0.1530
  268.0000      0.1515
  269.0000      0.1505
  270.0000      0.1492
  271.0000      0.1477
  272.0000      0.1468
  273.0000      0.1453
  274.0000      0.1438
  275.0000      0.1423
  276.0000      0.1402
  277.0000      0.1391
  278.0000      0.1378
  279.0000      0.1358
  280.0000      0.1352
  281.0000      0.1331
  282.0000      0.1319
  283.0000      0.1305
  284.0000      0.1290
  285.0000      0.1279
  286.0000      0.1263
  287.0000      0.1246
  288.0000      0.1226
  289.0000      0.1208
  290.0000      0.1195
  291.0000      0.1171
  292.0000      0.1153
  293.0000      0.1140
  294.0000      0.1122
  295.0000      0.1103
  296.0000      0.1085
  297.0000      0.1072
  298.0000      0.1057
  299.0000      0.1039
  300.0000      0.1028
  301.0000      0.1013
  302.0000      0.0995
  303.0000      0.0986
  304.0000      0.0968
  305.0000      0.0956
  306.0000      0.0943
  307.0000      0.0930
  308.0000      0.0920
  309.0000      0.0912
  310.0000      0.0899
  311.0000      0.0885
  312.0000      0.0883
  313.0000      0.0877
  314.0000      0.0870
  315.0000      0.0861
  316.0000      0.0851
  317.0000      0.0847
  318.0000      0.0836
  319.0000      0.0834
  320.0000      0.0826
  321.0000      0.0822
  322.0000      0.0804
  323.0000      0.0798
  324.0000      0.0793
  325.0000      0.0788
  326.0000      0.0779
  327.0000      0.0774
  328.0000      0.0769
  329.0000      0.0766
  330.0000      0.0762
  331.0000      0.0754
  332.0000      0.0750
  333.0000      0.0747
  334.0000      0.0744
  335.0000      0.0741
  336.0000      0.0738
  337.0000      0.0734
  338.0000      0.0728
  339.0000      0.0724
  340.0000      0.0718
  341.0000      0.0714
  342.0000      0.0709
  343.0000      0.0709
  344.0000      0.0702
  345.0000      0.0698
  346.0000      0.0692
  347.0000      0.0691
  348.0000      0.0683
  349.0000      0.0680
  350.0000      0.0678
  351.0000      0.0674
  352.0000      0.0672
  353.0000      0.0666
  354.0000      0.0664
  355.0000      0.0662
  356.0000      0.0660
  357.0000      0.0670
  358.0000      0.0665
  359.0000      0.0662
  360.0000      0.0671
  361.0000      0.0655
  362.0000      0.0659
  363.0000      0.0662
  364.0000      0.0654
  365.0000      0.0657
  366.0000      0.0647
  367.0000      0.0644
  368.0000      0.0653
  369.0000      0.0648
  370.0000      0.0641
  371.0000      0.0638
  372.0000      0.0631
  373.0000      0.0616
  374.0000      0.0624
  375.0000      0.0618
  376.0000      0.0617
  377.0000      0.0617
  378.0000      0.0616
  379.0000      0.0608
  380.0000      0.0599
  381.0000      0.0603
  382.0000      0.0604
  383.0000      0.0601
  384.0000      0.0599
  385.0000      0.0599
  386.0000      0.0592
  387.0000      0.0596
  388.0000      0.0588
  389.0000      0.0587
  390.0000      0.0587
  391.0000      0.0584
  392.0000      0.0576
  393.0000      0.0581
  394.0000      0.0584
  395.0000      0.0574
  396.0000      0.0574
  397.0000      0.0578
  398.0000      0.0573
  399.0000      0.0567
  400.0000      0.0567
  401.0000      0.0567
  402.0000      0.0558
  403.0000      0.0557
  404.0000      0.0557
  405.0000      0.0556
  406.0000      0.0556
  407.0000      0.0556
  408.0000      0.0555
  409.0000      0.0553
  410.0000      0.0547
  411.0000      0.0550
  412.0000      0.0547
  413.0000      0.0547
  414.0000      0.0545
  415.0000      0.0547
  416.0000      0.0543
  417.0000      0.0541
  418.0000      0.0542
  419.0000      0.0540
  420.0000      0.0539
  421.0000      0.0538
  422.0000      0.0537
  423.0000      0.0535
  424.0000      0.0534
  425.0000      0.0534
  426.0000      0.0534
  427.0000      0.0534
  428.0000      0.0533
  429.0000      0.0533
  430.0000      0.0533
  431.0000      0.0533
  432.0000      0.0533
  433.0000      0.0533
  434.0000      0.0533
  435.0000      0.0532
  436.0000      0.0531
  437.0000      0.0531
  438.0000      0.0531
  439.0000      0.0529
  440.0000      0.0527
  441.0000      0.0525
  442.0000      0.0522
  443.0000      0.0520
  444.0000      0.0519
  445.0000      0.0516
  446.0000      0.0513
  447.0000      0.0510
  448.0000      0.0507
  449.0000      0.0504
  450.0000      0.0501
  451.0000      0.0498
  452.0000      0.0494
  453.0000      0.0491
  454.0000      0.0488
  455.0000      0.0486
  456.0000      0.0484
  457.0000      0.0482
  458.0000      0.0480
  459.0000      0.0478
  460.0000      0.0477
  461.0000      0.0475
  462.0000      0.0473
  463.0000      0.0472
  464.0000      0.0471
  465.0000      0.0470
  466.0000      0.0470
  467.0000      0.0469
  468.0000      0.0468
  469.0000      0.0467
  470.0000      0.0466
  471.0000      0.0465
  472.0000      0.0464
  473.0000      0.0462
  474.0000      0.0460
  475.0000      0.0459
  476.0000      0.0457
  477.0000      0.0455
  478.0000      0.0453
  479.0000      0.0451
  480.0000      0.0450
  481.0000      0.0449
  482.0000      0.0447
  483.0000      0.0446
  484.0000      0.0445
  485.0000      0.0444
  486.0000      0.0442
  487.0000      0.0441
  488.0000      0.0439
  489.0000      0.0439
  490.0000      0.0437
  491.0000      0.0435
  492.0000      0.0435
  493.0000      0.0434
  494.0000      0.0432
  495.0000      0.0431
  496.0000      0.0429
  497.0000      0.0428
  498.0000      0.0426
  499.0000      0.0424
  500.0000      0.0423
  501.0000      0.0421
  502.0000      0.0420
  503.0000      0.0418
  504.0000      0.0416
  505.0000      0.0413
  506.0000      0.0411
  507.0000      0.0410
  508.0000      0.0408
  509.0000      0.0406
  510.0000      0.0404
  511.0000      0.0402
  512.0000      0.0400
  513.0000      0.0398
  514.0000      0.0396
  515.0000      0.0395
  516.0000      0.0393
  517.0000      0.0391
  518.0000      0.0390
  519.0000      0.0389
  520.0000      0.0388
  521.0000      0.0386
  522.0000      0.0384
  523.0000      0.0383
  524.0000      0.0382
  525.0000      0.0380
  526.0000      0.0380
  527.0000      0.0378
  528.0000      0.0377
  529.0000      0.0375
  530.0000      0.0373
  531.0000      0.0372
  532.0000      0.0370
  533.0000      0.0368
  534.0000      0.0367
  535.0000      0.0365
  536.0000      0.0364
  537.0000      0.0363
  538.0000      0.0362
  539.0000      0.0360
  540.0000      0.0359
  541.0000      0.0358
  542.0000      0.0357
  543.0000      0.0356
  544.0000      0.0356
  545.0000      0.0354
  546.0000      0.0353
  547.0000      0.0352
  548.0000      0.0351
  549.0000      0.0350
  550.0000      0.0349
  551.0000      0.0348
  552.0000      0.0348
  553.0000      0.0348
  554.0000      0.0348
  555.0000      0.0348
  556.0000      0.0347
  557.0000      0.0358
  558.0000      0.0358
  559.0000      0.0357
  560.0000      0.0357
  561.0000      0.0356
  562.0000      0.0355
  563.0000      0.0353
  564.0000      0.0352
  565.0000      0.0351
  566.0000      0.0350
  567.0000      0.0348
  568.0000      0.0347
  569.0000      0.0346
  570.0000      0.0345
  571.0000      0.0344
  572.0000      0.0343
  573.0000      0.0342
  574.0000      0.0341
  575.0000      0.0340
  576.0000      0.0340
  577.0000      0.0338
  578.0000      0.0338
  579.0000      0.0337
  580.0000      0.0336
  581.0000      0.0336
  582.0000      0.0335
  583.0000      0.0334
  584.0000      0.0333
  585.0000      0.0332
  586.0000      0.0331
  587.0000      0.0330
  588.0000      0.0329
  589.0000      0.0328
  590.0000      0.0328
  591.0000      0.0327
  592.0000      0.0326
  593.0000      0.0325
  594.0000      0.0325
  595.0000      0.0324
  596.0000      0.0323
  597.0000      0.0322
  598.0000      0.0321
  599.0000      0.0320
  600.0000      0.0320
  601.0000      0.0319
  602.0000      0.0318
  603.0000      0.0318
  604.0000      0.0317
  605.0000      0.0317
  606.0000      0.0318
  607.0000      0.0317
  608.0000      0.0318
  609.0000      0.0318
  610.0000      0.0318
  611.0000      0.0318
  612.0000      0.0318
  613.0000      0.0319
  614.0000      0.0318
  615.0000      0.0318
  616.0000      0.0318
  617.0000      0.0318
  618.0000      0.0318
  619.0000      0.0317
  620.0000      0.0318
  621.0000      0.0318
  622.0000      0.0318
  623.0000      0.0318
  624.0000      0.0318
  625.0000      0.0317
  626.0000      0.0318
  627.0000      0.0317
  628.0000      0.0317
  629.0000      0.0317
  630.0000      0.0316
  631.0000      0.0316
  632.0000      0.0315
  633.0000      0.0315
  634.0000      0.0314
  635.0000      0.0313
  636.0000      0.0312
  637.0000      0.0311
  638.0000      0.0310
  639.0000      0.0310
  640.0000      0.0309
  641.0000      0.0308
  642.0000      0.0308
  643.0000      0.0307
  644.0000      0.0307
  645.0000      0.0306
  646.0000      0.0306
  647.0000      0.0306
  648.0000      0.0306
  649.0000      0.0305
  650.0000      0.0304
  651.0000      0.0304
  652.0000      0.0304
  653.0000      0.0304
  654.0000      0.0304
  655.0000      0.0303
  656.0000      0.0303
  657.0000      0.0303
  658.0000      0.0304
  659.0000      0.0304
  660.0000      0.0304
  661.0000      0.0304
  662.0000      0.0305
  663.0000      0.0305
  664.0000      0.0306
  665.0000      0.0307
  666.0000      0.0308
  667.0000      0.0310
  668.0000      0.0311
  669.0000      0.0312
  670.0000      0.0313
  671.0000      0.0313
  672.0000      0.0314
  673.0000      0.0315
  674.0000      0.0316
  675.0000      0.0316
  676.0000      0.0317
  677.0000      0.0317
  678.0000      0.0318
  679.0000      0.0318
  680.0000      0.0318
  681.0000      0.0317
  682.0000      0.0316
  683.0000      0.0315
  684.0000      0.0313
  685.0000      0.0312
  686.0000      0.0309
  687.0000      0.0307
  688.0000      0.0304
  689.0000      0.0303
  690.0000      0.0300
  691.0000      0.0298
  692.0000      0.0296
  693.0000      0.0293
  694.0000      0.0291
  695.0000      0.0289
  696.0000      0.0287
  697.0000      0.0284
  698.0000      0.0283
  699.0000      0.0281
  700.0000      0.0279
  701.0000      0.0278
  702.0000      0.0277
  703.0000      0.0275
  704.0000      0.0274
  705.0000      0.0274
  706.0000      0.0271
  707.0000      0.0271
  708.0000      0.0270
  709.0000      0.0268
  710.0000      0.0267
  711.0000      0.0266
  712.0000      0.0265
  713.0000      0.0264
  714.0000      0.0263
  715.0000      0.0262
  716.0000      0.0261
  717.0000      0.0260
  718.0000      0.0259
  719.0000      0.0258
  720.0000      0.0258
  721.0000      0.0257
  722.0000      0.0256
  723.0000      0.0256
  724.0000      0.0255
  725.0000      0.0255
  726.0000      0.0254
  727.0000      0.0253
  728.0000      0.0253
  729.0000      0.0252
  730.0000      0.0252
  731.0000      0.0251
  732.0000      0.0249
  733.0000      0.0249
  734.0000      0.0248
  735.0000      0.0248
  736.0000      0.0251
  737.0000      0.0251
  738.0000      0.0251
  739.0000      0.0251
  740.0000      0.0251
  741.0000      0.0252
  742.0000      0.0251
  743.0000      0.0251
  744.0000      0.0251
  745.0000      0.0251
  746.0000      0.0251
  747.0000      0.0251
  748.0000      0.0252
  749.0000      0.0252
  750.0000      0.0252
  751.0000      0.0251
  752.0000      0.0251
  753.0000      0.0251
  754.0000      0.0251
  755.0000      0.0251
  756.0000      0.0251
  757.0000      0.0251
  758.0000      0.0251
  759.0000      0.0251
  760.0000      0.0251
  761.0000      0.0251
  762.0000      0.0251
  763.0000      0.0251
  764.0000      0.0251
  765.0000      0.0250
  766.0000      0.0250
  767.0000      0.0250
  768.0000      0.0250
  769.0000      0.0250
  770.0000      0.0250
  771.0000      0.0249
  772.0000      0.0249
  773.0000      0.0250
  774.0000      0.0249
  775.0000      0.0249
  776.0000      0.0248
  777.0000      0.0248
  778.0000      0.0247
  779.0000      0.0247
  780.0000      0.0246
  781.0000      0.0246
  782.0000      0.0246
  783.0000      0.0246
  784.0000      0.0245
  785.0000      0.0245
  786.0000      0.0243
  787.0000      0.0243
  788.0000      0.0243
  789.0000      0.0242
  790.0000      0.0242
  791.0000      0.0242
  792.0000      0.0241
  793.0000      0.0241
  794.0000      0.0240
  795.0000      0.0240
  796.0000      0.0240
  797.0000      0.0240
  798.0000      0.0240
  799.0000      0.0239
  800.0000      0.0238
