Start Wavelength:    200.0000
End Wavelength:    800.0000
Read Mode:  ABS
Read Average:      0.1000
Nanometer Interval:      1.0000
Time:      0.0000

  200.0000      0.4755
  201.0000      0.4332
  202.0000      0.4126
  203.0000      0.3916
  204.0000      0.3714
  205.0000      0.3568
  206.0000      0.3417
  207.0000      0.3295
  208.0000      0.3177
  209.0000      0.3065
  210.0000      0.2964
  211.0000      0.2862
  212.0000      0.2782
  213.0000      0.2688
  214.0000      0.2606
  215.0000      0.2539
  216.0000      0.2469
  217.0000      0.2401
  218.0000      0.2343
  219.0000      0.2287
  220.0000      0.2235
  221.0000      0.2180
  222.0000      0.2140
  223.0000      0.2089
  224.0000      0.2049
  225.0000      0.2004
  226.0000      0.1964
  227.0000      0.1926
  228.0000      0.1886
  229.0000      0.1843
  230.0000      0.1806
  231.0000      0.1764
  232.0000      0.1729
  233.0000      0.1690
  234.0000      0.1658
  235.0000      0.1628
  236.0000      0.1599
  237.0000      0.1567
  238.0000      0.1540
  239.0000      0.1517
  240.0000      0.1494
  241.0000      0.1471
  242.0000      0.1461
  243.0000      0.1436
  244.0000      0.1422
  245.0000      0.1409
  246.0000      0.1392
  247.0000      0.1382
  248.0000      0.1367
  249.0000      0.1359
  250.0000      0.1343
  251.0000      0.1337
  252.0000      0.1324
  253.0000      0.1314
  254.0000      0.1308
  255.0000      0.1297
  256.0000      0.1283
  257.0000      0.1279
  258.0000      0.1269
  259.0000      0.1260
  260.0000      0.1250
  261.0000      0.1246
  262.0000      0.1235
  263.0000      0.1220
  264.0000      0.1217
  265.0000      0.1205
  266.0000      0.1198
  267.0000      0.1187
  268.0000      0.1173
  269.0000      0.1165
  270.0000      0.1152
  271.0000      0.1135
  272.0000      0.1129
  273.0000      0.1114
  274.0000      0.1101
  275.0000      0.1088
  276.0000      0.1075
  277.0000      0.1063
  278.0000      0.1047
  279.0000      0.1036
  280.0000      0.1021
  281.0000      0.1008
  282.0000      0.1000
  283.0000      0.0984
  284.0000      0.0972
  285.0000      0.0960
  286.0000      0.0943
  287.0000      0.0932
  288.0000      0.0916
  289.0000      0.0899
  290.0000      0.0888
  291.0000      0.0866
  292.0000      0.0852
  293.0000      0.0833
  294.0000      0.0821
  295.0000      0.0807
  296.0000      0.0790
  297.0000      0.0777
  298.0000      0.0761
  299.0000      0.0741
  300.0000      0.0735
  301.0000      0.0718
  302.0000      0.0703
  303.0000      0.0699
  304.0000      0.0688
  305.0000      0.0680
  306.0000      0.0675
  307.0000      0.0664
  308.0000      0.0659
  309.0000      0.0646
  310.0000      0.0639
  311.0000      0.0630
  312.0000      0.0624
  313.0000      0.0624
  314.0000      0.0617
  315.0000      0.0606
  316.0000      0.0603
  317.0000      0.0596
  318.0000      0.0589
  319.0000      0.0582
  320.0000      0.0580
  321.0000      0.0574
  322.0000      0.0565
  323.0000      0.0562
  324.0000      0.0559
  325.0000      0.0555
  326.0000      0.0550
  327.0000      0.0541
  328.0000      0.0539
  329.0000      0.0534
  330.0000      0.0530
  331.0000      0.0522
  332.0000      0.0517
  333.0000      0.0514
  334.0000      0.0508
  335.0000      0.0505
  336.0000      0.0503
  337.0000      0.0503
  338.0000      0.0495
  339.0000      0.0490
  340.0000      0.0488
  341.0000      0.0484
  342.0000      0.0484
  343.0000      0.0477
  344.0000      0.0477
  345.0000      0.0473
  346.0000      0.0466
  347.0000      0.0465
  348.0000      0.0460
  349.0000      0.0456
  350.0000      0.0455
  351.0000      0.0452
  352.0000      0.0451
  353.0000      0.0447
  354.0000      0.0444
  355.0000      0.0443
  356.0000      0.0443
  357.0000      0.0437
  358.0000      0.0445
  359.0000      0.0434
  360.0000      0.0436
  361.0000      0.0423
  362.0000      0.0423
  363.0000      0.0428
  364.0000      0.0426
  365.0000      0.0432
  366.0000      0.0424
  367.0000      0.0421
  368.0000      0.0429
  369.0000      0.0436
  370.0000      0.0425
  371.0000      0.0428
  372.0000      0.0418
  373.0000      0.0401
  374.0000      0.0402
  375.0000      0.0403
  376.0000      0.0397
  377.0000      0.0394
  378.0000      0.0391
  379.0000      0.0391
  380.0000      0.0389
  381.0000      0.0383
  382.0000      0.0391
  383.0000      0.0391
  384.0000      0.0392
  385.0000      0.0388
  386.0000      0.0388
  387.0000      0.0386
  388.0000      0.0383
  389.0000      0.0381
  390.0000      0.0380
  391.0000      0.0381
  392.0000      0.0377
  393.0000      0.0375
  394.0000      0.0377
  395.0000      0.0369
  396.0000      0.0372
  397.0000      0.0376
  398.0000      0.0375
  399.0000      0.0374
  400.0000      0.0367
  401.0000      0.0373
  402.0000      0.0363
  403.0000      0.0365
  404.0000      0.0364
  405.0000      0.0361
  406.0000      0.0359
  407.0000      0.0360
  408.0000      0.0359
  409.0000      0.0360
  410.0000      0.0357
  411.0000      0.0352
  412.0000      0.0352
  413.0000      0.0354
  414.0000      0.0353
  415.0000      0.0352
  416.0000      0.0358
  417.0000      0.0356
  418.0000      0.0356
  419.0000      0.0356
  420.0000      0.0354
  421.0000      0.0355
  422.0000      0.0353
  423.0000      0.0351
  424.0000      0.0350
  425.0000      0.0350
  426.0000      0.0349
  427.0000      0.0349
  428.0000      0.0347
  429.0000      0.0348
  430.0000      0.0348
  431.0000      0.0348
  432.0000      0.0348
  433.0000      0.0348
  434.0000      0.0348
  435.0000      0.0347
  436.0000      0.0347
  437.0000      0.0346
  438.0000      0.0346
  439.0000      0.0345
  440.0000      0.0343
  441.0000      0.0342
  442.0000      0.0341
  443.0000      0.0339
  444.0000      0.0338
  445.0000      0.0336
  446.0000      0.0334
  447.0000      0.0332
  448.0000      0.0330
  449.0000      0.0328
  450.0000      0.0326
  451.0000      0.0325
  452.0000      0.0322
  453.0000      0.0320
  454.0000      0.0318
  455.0000      0.0316
  456.0000      0.0315
  457.0000      0.0313
  458.0000      0.0312
  459.0000      0.0310
  460.0000      0.0310
  461.0000      0.0308
  462.0000      0.0307
  463.0000      0.0307
  464.0000      0.0307
  465.0000      0.0306
  466.0000      0.0306
  467.0000      0.0305
  468.0000      0.0304
  469.0000      0.0303
  470.0000      0.0301
  471.0000      0.0300
  472.0000      0.0298
  473.0000      0.0296
  474.0000      0.0295
  475.0000      0.0294
  476.0000      0.0292
  477.0000      0.0292
  478.0000      0.0292
  479.0000      0.0291
  480.0000      0.0290
  481.0000      0.0290
  482.0000      0.0289
  483.0000      0.0288
  484.0000      0.0287
  485.0000      0.0286
  486.0000      0.0286
  487.0000      0.0284
  488.0000      0.0283
  489.0000      0.0282
  490.0000      0.0281
  491.0000      0.0279
  492.0000      0.0278
  493.0000      0.0277
  494.0000      0.0277
  495.0000      0.0276
  496.0000      0.0276
  497.0000      0.0275
  498.0000      0.0274
  499.0000      0.0273
  500.0000      0.0271
  501.0000      0.0270
  502.0000      0.0270
  503.0000      0.0269
  504.0000      0.0268
  505.0000      0.0266
  506.0000      0.0265
  507.0000      0.0265
  508.0000      0.0264
  509.0000      0.0262
  510.0000      0.0261
  511.0000      0.0260
  512.0000      0.0259
  513.0000      0.0258
  514.0000      0.0257
  515.0000      0.0255
  516.0000      0.0254
  517.0000      0.0252
  518.0000      0.0251
  519.0000      0.0250
  520.0000      0.0248
  521.0000      0.0247
  522.0000      0.0245
  523.0000      0.0243
  524.0000      0.0242
  525.0000      0.0240
  526.0000      0.0239
  527.0000      0.0238
  528.0000      0.0237
  529.0000      0.0236
  530.0000      0.0235
  531.0000      0.0233
  532.0000      0.0232
  533.0000      0.0231
  534.0000      0.0230
  535.0000      0.0229
  536.0000      0.0228
  537.0000      0.0227
  538.0000      0.0227
  539.0000      0.0226
  540.0000      0.0225
  541.0000      0.0224
  542.0000      0.0222
  543.0000      0.0221
  544.0000      0.0220
  545.0000      0.0219
  546.0000      0.0218
  547.0000      0.0217
  548.0000      0.0216
  549.0000      0.0215
  550.0000      0.0214
  551.0000      0.0214
  552.0000      0.0213
  553.0000      0.0214
  554.0000      0.0214
  555.0000      0.0214
  556.0000      0.0214
  557.0000      0.0219
  558.0000      0.0219
  559.0000      0.0220
  560.0000      0.0220
  561.0000      0.0220
  562.0000      0.0219
  563.0000      0.0219
  564.0000      0.0218
  565.0000      0.0219
  566.0000      0.0219
  567.0000      0.0219
  568.0000      0.0220
  569.0000      0.0220
  570.0000      0.0220
  571.0000      0.0220
  572.0000      0.0220
  573.0000      0.0221
  574.0000      0.0221
  575.0000      0.0221
  576.0000      0.0221
  577.0000      0.0221
  578.0000      0.0221
  579.0000      0.0220
  580.0000      0.0220
  581.0000      0.0220
  582.0000      0.0220
  583.0000      0.0221
  584.0000      0.0220
  585.0000      0.0220
  586.0000      0.0219
  587.0000      0.0218
  588.0000      0.0216
  589.0000      0.0215
  590.0000      0.0215
  591.0000      0.0214
  592.0000      0.0213
  593.0000      0.0212
  594.0000      0.0211
  595.0000      0.0210
  596.0000      0.0210
  597.0000      0.0208
  598.0000      0.0208
  599.0000      0.0207
  600.0000      0.0206
  601.0000      0.0205
  602.0000      0.0205
  603.0000      0.0205
  604.0000      0.0205
  605.0000      0.0205
  606.0000      0.0204
  607.0000      0.0204
  608.0000      0.0205
  609.0000      0.0204
  610.0000      0.0204
  611.0000      0.0204
  612.0000      0.0204
  613.0000      0.0203
  614.0000      0.0202
  615.0000      0.0202
  616.0000      0.0201
  617.0000      0.0200
  618.0000      0.0199
  619.0000      0.0198
  620.0000      0.0197
  621.0000      0.0196
  622.0000      0.0196
  623.0000      0.0196
  624.0000      0.0196
  625.0000      0.0195
  626.0000      0.0196
  627.0000      0.0195
  628.0000      0.0196
  629.0000      0.0196
  630.0000      0.0195
  631.0000      0.0195
  632.0000      0.0195
  633.0000      0.0196
  634.0000      0.0196
  635.0000      0.0196
  636.0000      0.0196
  637.0000      0.0195
  638.0000      0.0195
  639.0000      0.0194
  640.0000      0.0194
  641.0000      0.0193
  642.0000      0.0192
  643.0000      0.0191
  644.0000      0.0192
  645.0000      0.0191
  646.0000      0.0191
  647.0000      0.0191
  648.0000      0.0191
  649.0000      0.0191
  650.0000      0.0191
  651.0000      0.0191
  652.0000      0.0191
  653.0000      0.0191
  654.0000      0.0191
  655.0000      0.0191
  656.0000      0.0191
  657.0000      0.0192
  658.0000      0.0192
  659.0000      0.0193
  660.0000      0.0193
  661.0000      0.0193
  662.0000      0.0193
  663.0000      0.0194
  664.0000      0.0194
  665.0000      0.0194
  666.0000      0.0195
  667.0000      0.0196
  668.0000      0.0196
  669.0000      0.0197
  670.0000      0.0198
  671.0000      0.0198
  672.0000      0.0199
  673.0000      0.0199
  674.0000      0.0199
  675.0000      0.0200
  676.0000      0.0200
  677.0000      0.0200
  678.0000      0.0201
  679.0000      0.0201
  680.0000      0.0202
  681.0000      0.0201
  682.0000      0.0201
  683.0000      0.0200
  684.0000      0.0199
  685.0000      0.0198
  686.0000      0.0197
  687.0000      0.0195
  688.0000      0.0193
  689.0000      0.0192
  690.0000      0.0190
  691.0000      0.0188
  692.0000      0.0186
  693.0000      0.0183
  694.0000      0.0181
  695.0000      0.0179
  696.0000      0.0177
  697.0000      0.0174
  698.0000      0.0173
  699.0000      0.0171
  700.0000      0.0170
  701.0000      0.0168
  702.0000      0.0167
  703.0000      0.0166
  704.0000      0.0165
  705.0000      0.0164
  706.0000      0.0163
  707.0000      0.0163
  708.0000      0.0162
  709.0000      0.0161
  710.0000      0.0160
  711.0000      0.0160
  712.0000      0.0159
  713.0000      0.0158
  714.0000      0.0158
  715.0000      0.0157
  716.0000      0.0157
  717.0000      0.0157
  718.0000      0.0156
  719.0000      0.0155
  720.0000      0.0155
  721.0000      0.0155
  722.0000      0.0154
  723.0000      0.0154
  724.0000      0.0153
  725.0000      0.0153
  726.0000      0.0151
  727.0000      0.0151
  728.0000      0.0150
  729.0000      0.0149
  730.0000      0.0148
  731.0000      0.0147
  732.0000      0.0146
  733.0000      0.0145
  734.0000      0.0144
  735.0000      0.0143
  736.0000      0.0143
  737.0000      0.0142
  738.0000      0.0142
  739.0000      0.0142
  740.0000      0.0142
  741.0000      0.0142
  742.0000      0.0142
  743.0000      0.0141
  744.0000      0.0142
  745.0000      0.0142
  746.0000      0.0142
  747.0000      0.0142
  748.0000      0.0142
  749.0000      0.0143
  750.0000      0.0143
  751.0000      0.0143
  752.0000      0.0143
  753.0000      0.0143
  754.0000      0.0144
  755.0000      0.0144
  756.0000      0.0143
  757.0000      0.0143
  758.0000      0.0143
  759.0000      0.0143
  760.0000      0.0143
  761.0000      0.0142
  762.0000      0.0141
  763.0000      0.0141
  764.0000      0.0141
  765.0000      0.0140
  766.0000      0.0139
  767.0000      0.0139
  768.0000      0.0139
  769.0000      0.0139
  770.0000      0.0138
  771.0000      0.0138
  772.0000      0.0138
  773.0000      0.0139
  774.0000      0.0138
  775.0000      0.0138
  776.0000      0.0138
  777.0000      0.0139
  778.0000      0.0138
  779.0000      0.0139
  780.0000      0.0139
  781.0000      0.0139
  782.0000      0.0139
  783.0000      0.0139
  784.0000      0.0139
  785.0000      0.0139
  786.0000      0.0140
  787.0000      0.0140
  788.0000      0.0141
  789.0000      0.0140
  790.0000      0.0140
  791.0000      0.0140
  792.0000      0.0140
  793.0000      0.0141
  794.0000      0.0140
  795.0000      0.0140
  796.0000      0.0141
  797.0000      0.0142
  798.0000      0.0141
  799.0000      0.0141
  800.0000      0.0141
