Start Wavelength:    200.0000
End Wavelength:    800.0000
Read Mode:  ABS
Read Average:      0.1000
Nanometer Interval:      1.0000
Time:      0.0000

  200.0000      0.5832
  201.0000      0.5429
  202.0000      0.5190
  203.0000      0.4987
  204.0000      0.4769
  205.0000      0.4579
  206.0000      0.4419
  207.0000      0.4278
  208.0000      0.4153
  209.0000      0.4011
  210.0000      0.3896
  211.0000      0.3793
  212.0000      0.3697
  213.0000      0.3592
  214.0000      0.3497
  215.0000      0.3425
  216.0000      0.3347
  217.0000      0.3265
  218.0000      0.3204
  219.0000      0.3144
  220.0000      0.3085
  221.0000      0.3030
  222.0000      0.2973
  223.0000      0.2921
  224.0000      0.2880
  225.0000      0.2829
  226.0000      0.2777
  227.0000      0.2738
  228.0000      0.2690
  229.0000      0.2642
  230.0000      0.2602
  231.0000      0.2554
  232.0000      0.2512
  233.0000      0.2471
  234.0000      0.2431
  235.0000      0.2391
  236.0000      0.2361
  237.0000      0.2324
  238.0000      0.2290
  239.0000      0.2262
  240.0000      0.2233
  241.0000      0.2210
  242.0000      0.2192
  243.0000      0.2169
  244.0000      0.2155
  245.0000      0.2135
  246.0000      0.2115
  247.0000      0.2103
  248.0000      0.2087
  249.0000      0.2075
  250.0000      0.2062
  251.0000      0.2052
  252.0000      0.2035
  253.0000      0.2024
  254.0000      0.2016
  255.0000      0.2002
  256.0000      0.1987
  257.0000      0.1984
  258.0000      0.1969
  259.0000      0.1959
  260.0000      0.1949
  261.0000      0.1937
  262.0000      0.1925
  263.0000      0.1909
  264.0000      0.1901
  265.0000      0.1886
  266.0000      0.1875
  267.0000      0.1860
  268.0000      0.1847
  269.0000      0.1836
  270.0000      0.1822
  271.0000      0.1803
  272.0000      0.1790
  273.0000      0.1776
  274.0000      0.1758
  275.0000      0.1745
  276.0000      0.1724
  277.0000      0.1709
  278.0000      0.1695
  279.0000      0.1678
  280.0000      0.1665
  281.0000      0.1648
  282.0000      0.1633
  283.0000      0.1619
  284.0000      0.1600
  285.0000      0.1586
  286.0000      0.1563
  287.0000      0.1547
  288.0000      0.1526
  289.0000      0.1502
  290.0000      0.1492
  291.0000      0.1470
  292.0000      0.1453
  293.0000      0.1437
  294.0000      0.1416
  295.0000      0.1397
  296.0000      0.1381
  297.0000      0.1367
  298.0000      0.1348
  299.0000      0.1328
  300.0000      0.1317
  301.0000      0.1298
  302.0000      0.1278
  303.0000      0.1265
  304.0000      0.1250
  305.0000      0.1234
  306.0000      0.1224
  307.0000      0.1205
  308.0000      0.1199
  309.0000      0.1193
  310.0000      0.1176
  311.0000      0.1164
  312.0000      0.1157
  313.0000      0.1152
  314.0000      0.1144
  315.0000      0.1133
  316.0000      0.1132
  317.0000      0.1121
  318.0000      0.1107
  319.0000      0.1101
  320.0000      0.1098
  321.0000      0.1088
  322.0000      0.1069
  323.0000      0.1059
  324.0000      0.1058
  325.0000      0.1052
  326.0000      0.1042
  327.0000      0.1034
  328.0000      0.1029
  329.0000      0.1023
  330.0000      0.1019
  331.0000      0.1011
  332.0000      0.1004
  333.0000      0.1005
  334.0000      0.1003
  335.0000      0.0995
  336.0000      0.0993
  337.0000      0.0989
  338.0000      0.0985
  339.0000      0.0973
  340.0000      0.0970
  341.0000      0.0969
  342.0000      0.0959
  343.0000      0.0956
  344.0000      0.0950
  345.0000      0.0947
  346.0000      0.0944
  347.0000      0.0939
  348.0000      0.0933
  349.0000      0.0929
  350.0000      0.0925
  351.0000      0.0922
  352.0000      0.0921
  353.0000      0.0913
  354.0000      0.0915
  355.0000      0.0908
  356.0000      0.0905
  357.0000      0.0905
  358.0000      0.0900
  359.0000      0.0897
  360.0000      0.0902
  361.0000      0.0883
  362.0000      0.0884
  363.0000      0.0879
  364.0000      0.0890
  365.0000      0.0893
  366.0000      0.0876
  367.0000      0.0879
  368.0000      0.0878
  369.0000      0.0879
  370.0000      0.0873
  371.0000      0.0870
  372.0000      0.0862
  373.0000      0.0858
  374.0000      0.0845
  375.0000      0.0847
  376.0000      0.0841
  377.0000      0.0841
  378.0000      0.0838
  379.0000      0.0824
  380.0000      0.0828
  381.0000      0.0823
  382.0000      0.0820
  383.0000      0.0816
  384.0000      0.0824
  385.0000      0.0815
  386.0000      0.0811
  387.0000      0.0810
  388.0000      0.0804
  389.0000      0.0800
  390.0000      0.0802
  391.0000      0.0805
  392.0000      0.0797
  393.0000      0.0793
  394.0000      0.0796
  395.0000      0.0787
  396.0000      0.0789
  397.0000      0.0791
  398.0000      0.0786
  399.0000      0.0786
  400.0000      0.0781
  401.0000      0.0782
  402.0000      0.0773
  403.0000      0.0772
  404.0000      0.0770
  405.0000      0.0771
  406.0000      0.0772
  407.0000      0.0770
  408.0000      0.0767
  409.0000      0.0772
  410.0000      0.0766
  411.0000      0.0761
  412.0000      0.0758
  413.0000      0.0761
  414.0000      0.0763
  415.0000      0.0761
  416.0000      0.0771
  417.0000      0.0768
  418.0000      0.0768
  419.0000      0.0766
  420.0000      0.0766
  421.0000      0.0764
  422.0000      0.0762
  423.0000      0.0759
  424.0000      0.0757
  425.0000      0.0756
  426.0000      0.0755
  427.0000      0.0755
  428.0000      0.0754
  429.0000      0.0753
  430.0000      0.0753
  431.0000      0.0753
  432.0000      0.0751
  433.0000      0.0751
  434.0000      0.0750
  435.0000      0.0749
  436.0000      0.0747
  437.0000      0.0744
  438.0000      0.0744
  439.0000      0.0740
  440.0000      0.0736
  441.0000      0.0733
  442.0000      0.0729
  443.0000      0.0725
  444.0000      0.0722
  445.0000      0.0718
  446.0000      0.0713
  447.0000      0.0709
  448.0000      0.0705
  449.0000      0.0701
  450.0000      0.0698
  451.0000      0.0694
  452.0000      0.0689
  453.0000      0.0686
  454.0000      0.0684
  455.0000      0.0681
  456.0000      0.0680
  457.0000      0.0679
  458.0000      0.0678
  459.0000      0.0677
  460.0000      0.0675
  461.0000      0.0672
  462.0000      0.0671
  463.0000      0.0669
  464.0000      0.0669
  465.0000      0.0670
  466.0000      0.0669
  467.0000      0.0668
  468.0000      0.0666
  469.0000      0.0664
  470.0000      0.0660
  471.0000      0.0658
  472.0000      0.0655
  473.0000      0.0652
  474.0000      0.0650
  475.0000      0.0648
  476.0000      0.0646
  477.0000      0.0646
  478.0000      0.0643
  479.0000      0.0642
  480.0000      0.0639
  481.0000      0.0637
  482.0000      0.0635
  483.0000      0.0633
  484.0000      0.0631
  485.0000      0.0629
  486.0000      0.0627
  487.0000      0.0625
  488.0000      0.0623
  489.0000      0.0621
  490.0000      0.0618
  491.0000      0.0616
  492.0000      0.0613
  493.0000      0.0610
  494.0000      0.0608
  495.0000      0.0606
  496.0000      0.0604
  497.0000      0.0603
  498.0000      0.0601
  499.0000      0.0599
  500.0000      0.0598
  501.0000      0.0596
  502.0000      0.0594
  503.0000      0.0592
  504.0000      0.0590
  505.0000      0.0587
  506.0000      0.0584
  507.0000      0.0581
  508.0000      0.0578
  509.0000      0.0576
  510.0000      0.0573
  511.0000      0.0570
  512.0000      0.0567
  513.0000      0.0564
  514.0000      0.0562
  515.0000      0.0560
  516.0000      0.0557
  517.0000      0.0555
  518.0000      0.0553
  519.0000      0.0551
  520.0000      0.0549
  521.0000      0.0547
  522.0000      0.0546
  523.0000      0.0545
  524.0000      0.0543
  525.0000      0.0542
  526.0000      0.0541
  527.0000      0.0539
  528.0000      0.0537
  529.0000      0.0535
  530.0000      0.0533
  531.0000      0.0530
  532.0000      0.0529
  533.0000      0.0527
  534.0000      0.0526
  535.0000      0.0526
  536.0000      0.0525
  537.0000      0.0524
  538.0000      0.0524
  539.0000      0.0522
  540.0000      0.0522
  541.0000      0.0521
  542.0000      0.0521
  543.0000      0.0520
  544.0000      0.0519
  545.0000      0.0517
  546.0000      0.0517
  547.0000      0.0516
  548.0000      0.0516
  549.0000      0.0515
  550.0000      0.0514
  551.0000      0.0513
  552.0000      0.0512
  553.0000      0.0511
  554.0000      0.0510
  555.0000      0.0510
  556.0000      0.0510
  557.0000      0.0508
  558.0000      0.0506
  559.0000      0.0506
  560.0000      0.0505
  561.0000      0.0504
  562.0000      0.0503
  563.0000      0.0502
  564.0000      0.0500
  565.0000      0.0499
  566.0000      0.0497
  567.0000      0.0495
  568.0000      0.0495
  569.0000      0.0494
  570.0000      0.0494
  571.0000      0.0493
  572.0000      0.0492
  573.0000      0.0491
  574.0000      0.0491
  575.0000      0.0490
  576.0000      0.0489
  577.0000      0.0488
  578.0000      0.0488
  579.0000      0.0487
  580.0000      0.0487
  581.0000      0.0486
  582.0000      0.0485
  583.0000      0.0485
  584.0000      0.0485
  585.0000      0.0484
  586.0000      0.0483
  587.0000      0.0482
  588.0000      0.0481
  589.0000      0.0481
  590.0000      0.0480
  591.0000      0.0479
  592.0000      0.0479
  593.0000      0.0478
  594.0000      0.0477
  595.0000      0.0476
  596.0000      0.0475
  597.0000      0.0473
  598.0000      0.0472
  599.0000      0.0471
  600.0000      0.0469
  601.0000      0.0468
  602.0000      0.0466
  603.0000      0.0465
  604.0000      0.0464
  605.0000      0.0463
  606.0000      0.0462
  607.0000      0.0461
  608.0000      0.0461
  609.0000      0.0460
  610.0000      0.0459
  611.0000      0.0458
  612.0000      0.0457
  613.0000      0.0456
  614.0000      0.0455
  615.0000      0.0454
  616.0000      0.0453
  617.0000      0.0453
  618.0000      0.0452
  619.0000      0.0452
  620.0000      0.0452
  621.0000      0.0451
  622.0000      0.0450
  623.0000      0.0450
  624.0000      0.0449
  625.0000      0.0449
  626.0000      0.0449
  627.0000      0.0449
  628.0000      0.0450
  629.0000      0.0449
  630.0000      0.0449
  631.0000      0.0449
  632.0000      0.0449
  633.0000      0.0448
  634.0000      0.0448
  635.0000      0.0448
  636.0000      0.0448
  637.0000      0.0447
  638.0000      0.0446
  639.0000      0.0445
  640.0000      0.0444
  641.0000      0.0442
  642.0000      0.0441
  643.0000      0.0439
  644.0000      0.0439
  645.0000      0.0438
  646.0000      0.0438
  647.0000      0.0437
  648.0000      0.0437
  649.0000      0.0436
  650.0000      0.0435
  651.0000      0.0435
  652.0000      0.0434
  653.0000      0.0434
  654.0000      0.0435
  655.0000      0.0434
  656.0000      0.0434
  657.0000      0.0433
  658.0000      0.0433
  659.0000      0.0432
  660.0000      0.0433
  661.0000      0.0432
  662.0000      0.0433
  663.0000      0.0434
  664.0000      0.0434
  665.0000      0.0435
  666.0000      0.0436
  667.0000      0.0436
  668.0000      0.0436
  669.0000      0.0437
  670.0000      0.0437
  671.0000      0.0437
  672.0000      0.0438
  673.0000      0.0438
  674.0000      0.0438
  675.0000      0.0439
  676.0000      0.0439
  677.0000      0.0439
  678.0000      0.0440
  679.0000      0.0439
  680.0000      0.0439
  681.0000      0.0438
  682.0000      0.0438
  683.0000      0.0437
  684.0000      0.0436
  685.0000      0.0435
  686.0000      0.0432
  687.0000      0.0430
  688.0000      0.0427
  689.0000      0.0424
  690.0000      0.0421
  691.0000      0.0418
  692.0000      0.0415
  693.0000      0.0413
  694.0000      0.0411
  695.0000      0.0410
  696.0000      0.0409
  697.0000      0.0407
  698.0000      0.0407
  699.0000      0.0406
  700.0000      0.0406
  701.0000      0.0405
  702.0000      0.0404
  703.0000      0.0404
  704.0000      0.0406
  705.0000      0.0407
  706.0000      0.0408
  707.0000      0.0409
  708.0000      0.0410
  709.0000      0.0410
  710.0000      0.0411
  711.0000      0.0410
  712.0000      0.0410
  713.0000      0.0410
  714.0000      0.0409
  715.0000      0.0406
  716.0000      0.0404
  717.0000      0.0398
  718.0000      0.0394
  719.0000      0.0389
  720.0000      0.0384
  721.0000      0.0381
  722.0000      0.0378
  723.0000      0.0377
  724.0000      0.0375
  725.0000      0.0374
  726.0000      0.0373
  727.0000      0.0372
  728.0000      0.0371
  729.0000      0.0369
  730.0000      0.0368
  731.0000      0.0367
  732.0000      0.0366
  733.0000      0.0365
  734.0000      0.0364
  735.0000      0.0365
  736.0000      0.0364
  737.0000      0.0364
  738.0000      0.0365
  739.0000      0.0365
  740.0000      0.0366
  741.0000      0.0366
  742.0000      0.0366
  743.0000      0.0366
  744.0000      0.0366
  745.0000      0.0366
  746.0000      0.0366
  747.0000      0.0366
  748.0000      0.0365
  749.0000      0.0365
  750.0000      0.0365
  751.0000      0.0364
  752.0000      0.0363
  753.0000      0.0362
  754.0000      0.0361
  755.0000      0.0360
  756.0000      0.0358
  757.0000      0.0357
  758.0000      0.0356
  759.0000      0.0355
  760.0000      0.0354
  761.0000      0.0353
  762.0000      0.0352
  763.0000      0.0352
  764.0000      0.0352
  765.0000      0.0351
  766.0000      0.0351
  767.0000      0.0351
  768.0000      0.0352
  769.0000      0.0352
  770.0000      0.0352
  771.0000      0.0352
  772.0000      0.0352
  773.0000      0.0353
  774.0000      0.0353
  775.0000      0.0354
  776.0000      0.0353
  777.0000      0.0353
  778.0000      0.0352
  779.0000      0.0352
  780.0000      0.0351
  781.0000      0.0352
  782.0000      0.0352
  783.0000      0.0351
  784.0000      0.0351
  785.0000      0.0350
  786.0000      0.0349
  787.0000      0.0348
  788.0000      0.0349
  789.0000      0.0348
  790.0000      0.0347
  791.0000      0.0346
  792.0000      0.0346
  793.0000      0.0345
  794.0000      0.0344
  795.0000      0.0344
  796.0000      0.0343
  797.0000      0.0342
  798.0000      0.0342
  799.0000      0.0341
  800.0000      0.0340
