Start Wavelength:    200.0000
End Wavelength:    800.0000
Read Mode:  ABS
Read Average:      0.1000
Nanometer Interval:      1.0000
Time:      0.0000

  200.0000      0.4588
  201.0000      0.4187
  202.0000      0.3976
  203.0000      0.3781
  204.0000      0.3593
  205.0000      0.3438
  206.0000      0.3308
  207.0000      0.3186
  208.0000      0.3079
  209.0000      0.2975
  210.0000      0.2880
  211.0000      0.2792
  212.0000      0.2718
  213.0000      0.2627
  214.0000      0.2553
  215.0000      0.2487
  216.0000      0.2422
  217.0000      0.2360
  218.0000      0.2303
  219.0000      0.2248
  220.0000      0.2200
  221.0000      0.2141
  222.0000      0.2096
  223.0000      0.2049
  224.0000      0.2011
  225.0000      0.1963
  226.0000      0.1921
  227.0000      0.1885
  228.0000      0.1845
  229.0000      0.1805
  230.0000      0.1766
  231.0000      0.1727
  232.0000      0.1694
  233.0000      0.1653
  234.0000      0.1620
  235.0000      0.1591
  236.0000      0.1561
  237.0000      0.1527
  238.0000      0.1506
  239.0000      0.1480
  240.0000      0.1459
  241.0000      0.1436
  242.0000      0.1420
  243.0000      0.1400
  244.0000      0.1389
  245.0000      0.1373
  246.0000      0.1357
  247.0000      0.1347
  248.0000      0.1335
  249.0000      0.1322
  250.0000      0.1313
  251.0000      0.1302
  252.0000      0.1291
  253.0000      0.1282
  254.0000      0.1280
  255.0000      0.1269
  256.0000      0.1254
  257.0000      0.1252
  258.0000      0.1245
  259.0000      0.1236
  260.0000      0.1223
  261.0000      0.1214
  262.0000      0.1206
  263.0000      0.1191
  264.0000      0.1185
  265.0000      0.1176
  266.0000      0.1163
  267.0000      0.1154
  268.0000      0.1145
  269.0000      0.1133
  270.0000      0.1122
  271.0000      0.1108
  272.0000      0.1097
  273.0000      0.1081
  274.0000      0.1069
  275.0000      0.1057
  276.0000      0.1043
  277.0000      0.1028
  278.0000      0.1017
  279.0000      0.1000
  280.0000      0.0986
  281.0000      0.0973
  282.0000      0.0959
  283.0000      0.0948
  284.0000      0.0933
  285.0000      0.0920
  286.0000      0.0904
  287.0000      0.0892
  288.0000      0.0873
  289.0000      0.0856
  290.0000      0.0846
  291.0000      0.0828
  292.0000      0.0813
  293.0000      0.0799
  294.0000      0.0784
  295.0000      0.0773
  296.0000      0.0758
  297.0000      0.0744
  298.0000      0.0733
  299.0000      0.0725
  300.0000      0.0715
  301.0000      0.0705
  302.0000      0.0693
  303.0000      0.0688
  304.0000      0.0674
  305.0000      0.0666
  306.0000      0.0654
  307.0000      0.0648
  308.0000      0.0644
  309.0000      0.0634
  310.0000      0.0626
  311.0000      0.0614
  312.0000      0.0616
  313.0000      0.0609
  314.0000      0.0599
  315.0000      0.0594
  316.0000      0.0588
  317.0000      0.0587
  318.0000      0.0576
  319.0000      0.0572
  320.0000      0.0565
  321.0000      0.0561
  322.0000      0.0550
  323.0000      0.0546
  324.0000      0.0541
  325.0000      0.0535
  326.0000      0.0530
  327.0000      0.0522
  328.0000      0.0520
  329.0000      0.0515
  330.0000      0.0516
  331.0000      0.0505
  332.0000      0.0501
  333.0000      0.0505
  334.0000      0.0498
  335.0000      0.0496
  336.0000      0.0497
  337.0000      0.0495
  338.0000      0.0491
  339.0000      0.0487
  340.0000      0.0483
  341.0000      0.0478
  342.0000      0.0476
  343.0000      0.0472
  344.0000      0.0468
  345.0000      0.0464
  346.0000      0.0460
  347.0000      0.0462
  348.0000      0.0454
  349.0000      0.0451
  350.0000      0.0447
  351.0000      0.0446
  352.0000      0.0445
  353.0000      0.0441
  354.0000      0.0443
  355.0000      0.0439
  356.0000      0.0437
  357.0000      0.0427
  358.0000      0.0430
  359.0000      0.0424
  360.0000      0.0422
  361.0000      0.0417
  362.0000      0.0414
  363.0000      0.0417
  364.0000      0.0407
  365.0000      0.0424
  366.0000      0.0414
  367.0000      0.0405
  368.0000      0.0412
  369.0000      0.0410
  370.0000      0.0407
  371.0000      0.0404
  372.0000      0.0402
  373.0000      0.0391
  374.0000      0.0392
  375.0000      0.0387
  376.0000      0.0385
  377.0000      0.0386
  378.0000      0.0381
  379.0000      0.0374
  380.0000      0.0376
  381.0000      0.0370
  382.0000      0.0380
  383.0000      0.0378
  384.0000      0.0384
  385.0000      0.0384
  386.0000      0.0380
  387.0000      0.0381
  388.0000      0.0383
  389.0000      0.0380
  390.0000      0.0380
  391.0000      0.0379
  392.0000      0.0381
  393.0000      0.0382
  394.0000      0.0381
  395.0000      0.0381
  396.0000      0.0378
  397.0000      0.0380
  398.0000      0.0376
  399.0000      0.0372
  400.0000      0.0373
  401.0000      0.0371
  402.0000      0.0369
  403.0000      0.0366
  404.0000      0.0364
  405.0000      0.0363
  406.0000      0.0365
  407.0000      0.0363
  408.0000      0.0365
  409.0000      0.0364
  410.0000      0.0362
  411.0000      0.0360
  412.0000      0.0358
  413.0000      0.0360
  414.0000      0.0359
  415.0000      0.0359
  416.0000      0.0358
  417.0000      0.0355
  418.0000      0.0355
  419.0000      0.0355
  420.0000      0.0353
  421.0000      0.0353
  422.0000      0.0350
  423.0000      0.0348
  424.0000      0.0346
  425.0000      0.0346
  426.0000      0.0345
  427.0000      0.0346
  428.0000      0.0345
  429.0000      0.0344
  430.0000      0.0345
  431.0000      0.0345
  432.0000      0.0345
  433.0000      0.0345
  434.0000      0.0345
  435.0000      0.0344
  436.0000      0.0344
  437.0000      0.0342
  438.0000      0.0343
  439.0000      0.0341
  440.0000      0.0339
  441.0000      0.0337
  442.0000      0.0336
  443.0000      0.0334
  444.0000      0.0332
  445.0000      0.0330
  446.0000      0.0328
  447.0000      0.0326
  448.0000      0.0324
  449.0000      0.0322
  450.0000      0.0320
  451.0000      0.0317
  452.0000      0.0314
  453.0000      0.0312
  454.0000      0.0311
  455.0000      0.0308
  456.0000      0.0307
  457.0000      0.0305
  458.0000      0.0304
  459.0000      0.0303
  460.0000      0.0302
  461.0000      0.0301
  462.0000      0.0301
  463.0000      0.0301
  464.0000      0.0301
  465.0000      0.0300
  466.0000      0.0301
  467.0000      0.0300
  468.0000      0.0299
  469.0000      0.0299
  470.0000      0.0297
  471.0000      0.0296
  472.0000      0.0294
  473.0000      0.0293
  474.0000      0.0291
  475.0000      0.0289
  476.0000      0.0288
  477.0000      0.0287
  478.0000      0.0285
  479.0000      0.0284
  480.0000      0.0283
  481.0000      0.0283
  482.0000      0.0282
  483.0000      0.0281
  484.0000      0.0280
  485.0000      0.0279
  486.0000      0.0278
  487.0000      0.0277
  488.0000      0.0275
  489.0000      0.0274
  490.0000      0.0273
  491.0000      0.0272
  492.0000      0.0271
  493.0000      0.0270
  494.0000      0.0269
  495.0000      0.0268
  496.0000      0.0266
  497.0000      0.0265
  498.0000      0.0263
  499.0000      0.0261
  500.0000      0.0259
  501.0000      0.0258
  502.0000      0.0256
  503.0000      0.0255
  504.0000      0.0254
  505.0000      0.0252
  506.0000      0.0251
  507.0000      0.0250
  508.0000      0.0248
  509.0000      0.0247
  510.0000      0.0246
  511.0000      0.0244
  512.0000      0.0244
  513.0000      0.0241
  514.0000      0.0240
  515.0000      0.0239
  516.0000      0.0238
  517.0000      0.0237
  518.0000      0.0235
  519.0000      0.0233
  520.0000      0.0232
  521.0000      0.0231
  522.0000      0.0229
  523.0000      0.0227
  524.0000      0.0226
  525.0000      0.0224
  526.0000      0.0224
  527.0000      0.0222
  528.0000      0.0222
  529.0000      0.0221
  530.0000      0.0220
  531.0000      0.0218
  532.0000      0.0217
  533.0000      0.0216
  534.0000      0.0215
  535.0000      0.0213
  536.0000      0.0212
  537.0000      0.0210
  538.0000      0.0209
  539.0000      0.0208
  540.0000      0.0207
  541.0000      0.0206
  542.0000      0.0206
  543.0000      0.0205
  544.0000      0.0205
  545.0000      0.0204
  546.0000      0.0203
  547.0000      0.0202
  548.0000      0.0202
  549.0000      0.0201
  550.0000      0.0200
  551.0000      0.0200
  552.0000      0.0200
  553.0000      0.0201
  554.0000      0.0201
  555.0000      0.0202
  556.0000      0.0202
  557.0000      0.0201
  558.0000      0.0200
  559.0000      0.0200
  560.0000      0.0199
  561.0000      0.0199
  562.0000      0.0198
  563.0000      0.0197
  564.0000      0.0195
  565.0000      0.0194
  566.0000      0.0192
  567.0000      0.0190
  568.0000      0.0189
  569.0000      0.0189
  570.0000      0.0189
  571.0000      0.0188
  572.0000      0.0188
  573.0000      0.0188
  574.0000      0.0188
  575.0000      0.0187
  576.0000      0.0187
  577.0000      0.0187
  578.0000      0.0186
  579.0000      0.0185
  580.0000      0.0184
  581.0000      0.0184
  582.0000      0.0184
  583.0000      0.0183
  584.0000      0.0183
  585.0000      0.0183
  586.0000      0.0183
  587.0000      0.0183
  588.0000      0.0183
  589.0000      0.0183
  590.0000      0.0183
  591.0000      0.0182
  592.0000      0.0182
  593.0000      0.0182
  594.0000      0.0182
  595.0000      0.0181
  596.0000      0.0182
  597.0000      0.0182
  598.0000      0.0182
  599.0000      0.0181
  600.0000      0.0182
  601.0000      0.0182
  602.0000      0.0182
  603.0000      0.0181
  604.0000      0.0181
  605.0000      0.0181
  606.0000      0.0181
  607.0000      0.0181
  608.0000      0.0182
  609.0000      0.0182
  610.0000      0.0183
  611.0000      0.0184
  612.0000      0.0185
  613.0000      0.0185
  614.0000      0.0185
  615.0000      0.0185
  616.0000      0.0186
  617.0000      0.0186
  618.0000      0.0186
  619.0000      0.0187
  620.0000      0.0187
  621.0000      0.0187
  622.0000      0.0188
  623.0000      0.0189
  624.0000      0.0189
  625.0000      0.0190
  626.0000      0.0191
  627.0000      0.0192
  628.0000      0.0193
  629.0000      0.0193
  630.0000      0.0193
  631.0000      0.0193
  632.0000      0.0192
  633.0000      0.0192
  634.0000      0.0191
  635.0000      0.0191
  636.0000      0.0189
  637.0000      0.0189
  638.0000      0.0188
  639.0000      0.0187
  640.0000      0.0186
  641.0000      0.0185
  642.0000      0.0184
  643.0000      0.0183
  644.0000      0.0182
  645.0000      0.0181
  646.0000      0.0179
  647.0000      0.0178
  648.0000      0.0177
  649.0000      0.0176
  650.0000      0.0175
  651.0000      0.0175
  652.0000      0.0174
  653.0000      0.0173
  654.0000      0.0172
  655.0000      0.0172
  656.0000      0.0172
  657.0000      0.0172
  658.0000      0.0171
  659.0000      0.0172
  660.0000      0.0172
  661.0000      0.0172
  662.0000      0.0173
  663.0000      0.0173
  664.0000      0.0174
  665.0000      0.0175
  666.0000      0.0176
  667.0000      0.0177
  668.0000      0.0178
  669.0000      0.0179
  670.0000      0.0180
  671.0000      0.0181
  672.0000      0.0182
  673.0000      0.0183
  674.0000      0.0185
  675.0000      0.0185
  676.0000      0.0186
  677.0000      0.0188
  678.0000      0.0188
  679.0000      0.0189
  680.0000      0.0190
  681.0000      0.0190
  682.0000      0.0190
  683.0000      0.0190
  684.0000      0.0189
  685.0000      0.0189
  686.0000      0.0187
  687.0000      0.0186
  688.0000      0.0184
  689.0000      0.0183
  690.0000      0.0181
  691.0000      0.0179
  692.0000      0.0176
  693.0000      0.0174
  694.0000      0.0172
  695.0000      0.0170
  696.0000      0.0168
  697.0000      0.0166
  698.0000      0.0165
  699.0000      0.0163
  700.0000      0.0162
  701.0000      0.0161
  702.0000      0.0160
  703.0000      0.0159
  704.0000      0.0158
  705.0000      0.0157
  706.0000      0.0156
  707.0000      0.0156
  708.0000      0.0155
  709.0000      0.0154
  710.0000      0.0153
  711.0000      0.0152
  712.0000      0.0151
  713.0000      0.0151
  714.0000      0.0150
  715.0000      0.0150
  716.0000      0.0149
  717.0000      0.0148
  718.0000      0.0148
  719.0000      0.0147
  720.0000      0.0146
  721.0000      0.0145
  722.0000      0.0144
  723.0000      0.0144
  724.0000      0.0143
  725.0000      0.0143
  726.0000      0.0143
  727.0000      0.0142
  728.0000      0.0142
  729.0000      0.0141
  730.0000      0.0141
  731.0000      0.0141
  732.0000      0.0140
  733.0000      0.0139
  734.0000      0.0139
  735.0000      0.0139
  736.0000      0.0147
  737.0000      0.0146
  738.0000      0.0146
  739.0000      0.0146
  740.0000      0.0146
  741.0000      0.0146
  742.0000      0.0146
  743.0000      0.0146
  744.0000      0.0145
  745.0000      0.0145
  746.0000      0.0144
  747.0000      0.0144
  748.0000      0.0144
  749.0000      0.0143
  750.0000      0.0143
  751.0000      0.0143
  752.0000      0.0142
  753.0000      0.0142
  754.0000      0.0141
  755.0000      0.0142
  756.0000      0.0141
  757.0000      0.0141
  758.0000      0.0142
  759.0000      0.0142
  760.0000      0.0142
  761.0000      0.0142
  762.0000      0.0142
  763.0000      0.0141
  764.0000      0.0142
  765.0000      0.0141
  766.0000      0.0141
  767.0000      0.0141
  768.0000      0.0141
  769.0000      0.0140
  770.0000      0.0140
  771.0000      0.0140
  772.0000      0.0140
  773.0000      0.0140
  774.0000      0.0139
  775.0000      0.0138
  776.0000      0.0138
  777.0000      0.0138
  778.0000      0.0138
  779.0000      0.0137
  780.0000      0.0137
  781.0000      0.0137
  782.0000      0.0138
  783.0000      0.0138
  784.0000      0.0138
  785.0000      0.0138
  786.0000      0.0137
  787.0000      0.0138
  788.0000      0.0138
  789.0000      0.0138
  790.0000      0.0138
  791.0000      0.0139
  792.0000      0.0139
  793.0000      0.0139
  794.0000      0.0138
  795.0000      0.0138
  796.0000      0.0139
  797.0000      0.0138
  798.0000      0.0138
  799.0000      0.0137
  800.0000      0.0137
