Start Wavelength:    200.0000
End Wavelength:    800.0000
Read Mode:  ABS
Read Average:      0.1000
Nanometer Interval:      1.0000
Time:      0.0000

  200.0000      0.4513
  201.0000      0.4129
  202.0000      0.3911
  203.0000      0.3730
  204.0000      0.3554
  205.0000      0.3396
  206.0000      0.3267
  207.0000      0.3144
  208.0000      0.3042
  209.0000      0.2927
  210.0000      0.2834
  211.0000      0.2753
  212.0000      0.2671
  213.0000      0.2589
  214.0000      0.2515
  215.0000      0.2455
  216.0000      0.2392
  217.0000      0.2327
  218.0000      0.2274
  219.0000      0.2226
  220.0000      0.2168
  221.0000      0.2119
  222.0000      0.2074
  223.0000      0.2029
  224.0000      0.1989
  225.0000      0.1945
  226.0000      0.1904
  227.0000      0.1868
  228.0000      0.1830
  229.0000      0.1789
  230.0000      0.1751
  231.0000      0.1712
  232.0000      0.1677
  233.0000      0.1640
  234.0000      0.1608
  235.0000      0.1575
  236.0000      0.1550
  237.0000      0.1518
  238.0000      0.1494
  239.0000      0.1474
  240.0000      0.1451
  241.0000      0.1433
  242.0000      0.1416
  243.0000      0.1399
  244.0000      0.1381
  245.0000      0.1369
  246.0000      0.1354
  247.0000      0.1341
  248.0000      0.1327
  249.0000      0.1322
  250.0000      0.1310
  251.0000      0.1301
  252.0000      0.1292
  253.0000      0.1282
  254.0000      0.1275
  255.0000      0.1269
  256.0000      0.1258
  257.0000      0.1250
  258.0000      0.1242
  259.0000      0.1232
  260.0000      0.1223
  261.0000      0.1213
  262.0000      0.1202
  263.0000      0.1188
  264.0000      0.1184
  265.0000      0.1170
  266.0000      0.1161
  267.0000      0.1153
  268.0000      0.1139
  269.0000      0.1131
  270.0000      0.1120
  271.0000      0.1105
  272.0000      0.1097
  273.0000      0.1085
  274.0000      0.1072
  275.0000      0.1057
  276.0000      0.1043
  277.0000      0.1027
  278.0000      0.1008
  279.0000      0.0999
  280.0000      0.0981
  281.0000      0.0966
  282.0000      0.0954
  283.0000      0.0940
  284.0000      0.0925
  285.0000      0.0915
  286.0000      0.0900
  287.0000      0.0887
  288.0000      0.0870
  289.0000      0.0855
  290.0000      0.0842
  291.0000      0.0829
  292.0000      0.0812
  293.0000      0.0798
  294.0000      0.0785
  295.0000      0.0769
  296.0000      0.0752
  297.0000      0.0740
  298.0000      0.0728
  299.0000      0.0716
  300.0000      0.0709
  301.0000      0.0696
  302.0000      0.0685
  303.0000      0.0681
  304.0000      0.0668
  305.0000      0.0660
  306.0000      0.0652
  307.0000      0.0645
  308.0000      0.0642
  309.0000      0.0629
  310.0000      0.0625
  311.0000      0.0618
  312.0000      0.0608
  313.0000      0.0608
  314.0000      0.0598
  315.0000      0.0591
  316.0000      0.0589
  317.0000      0.0584
  318.0000      0.0571
  319.0000      0.0567
  320.0000      0.0567
  321.0000      0.0567
  322.0000      0.0544
  323.0000      0.0536
  324.0000      0.0535
  325.0000      0.0531
  326.0000      0.0523
  327.0000      0.0517
  328.0000      0.0516
  329.0000      0.0514
  330.0000      0.0504
  331.0000      0.0502
  332.0000      0.0496
  333.0000      0.0499
  334.0000      0.0497
  335.0000      0.0494
  336.0000      0.0496
  337.0000      0.0489
  338.0000      0.0486
  339.0000      0.0482
  340.0000      0.0476
  341.0000      0.0473
  342.0000      0.0469
  343.0000      0.0464
  344.0000      0.0461
  345.0000      0.0458
  346.0000      0.0456
  347.0000      0.0454
  348.0000      0.0450
  349.0000      0.0446
  350.0000      0.0445
  351.0000      0.0441
  352.0000      0.0440
  353.0000      0.0438
  354.0000      0.0434
  355.0000      0.0434
  356.0000      0.0433
  357.0000      0.0417
  358.0000      0.0421
  359.0000      0.0417
  360.0000      0.0426
  361.0000      0.0414
  362.0000      0.0423
  363.0000      0.0413
  364.0000      0.0411
  365.0000      0.0407
  366.0000      0.0402
  367.0000      0.0399
  368.0000      0.0404
  369.0000      0.0404
  370.0000      0.0402
  371.0000      0.0406
  372.0000      0.0393
  373.0000      0.0384
  374.0000      0.0388
  375.0000      0.0387
  376.0000      0.0390
  377.0000      0.0390
  378.0000      0.0388
  379.0000      0.0386
  380.0000      0.0377
  381.0000      0.0382
  382.0000      0.0380
  383.0000      0.0378
  384.0000      0.0377
  385.0000      0.0379
  386.0000      0.0371
  387.0000      0.0369
  388.0000      0.0368
  389.0000      0.0370
  390.0000      0.0372
  391.0000      0.0370
  392.0000      0.0367
  393.0000      0.0367
  394.0000      0.0366
  395.0000      0.0365
  396.0000      0.0364
  397.0000      0.0365
  398.0000      0.0360
  399.0000      0.0357
  400.0000      0.0355
  401.0000      0.0353
  402.0000      0.0346
  403.0000      0.0346
  404.0000      0.0345
  405.0000      0.0339
  406.0000      0.0339
  407.0000      0.0341
  408.0000      0.0340
  409.0000      0.0342
  410.0000      0.0340
  411.0000      0.0341
  412.0000      0.0337
  413.0000      0.0341
  414.0000      0.0341
  415.0000      0.0339
  416.0000      0.0346
  417.0000      0.0345
  418.0000      0.0344
  419.0000      0.0344
  420.0000      0.0343
  421.0000      0.0343
  422.0000      0.0341
  423.0000      0.0340
  424.0000      0.0338
  425.0000      0.0338
  426.0000      0.0337
  427.0000      0.0337
  428.0000      0.0335
  429.0000      0.0335
  430.0000      0.0335
  431.0000      0.0334
  432.0000      0.0334
  433.0000      0.0334
  434.0000      0.0335
  435.0000      0.0335
  436.0000      0.0335
  437.0000      0.0334
  438.0000      0.0334
  439.0000      0.0332
  440.0000      0.0330
  441.0000      0.0329
  442.0000      0.0327
  443.0000      0.0324
  444.0000      0.0322
  445.0000      0.0319
  446.0000      0.0315
  447.0000      0.0313
  448.0000      0.0310
  449.0000      0.0307
  450.0000      0.0306
  451.0000      0.0304
  452.0000      0.0301
  453.0000      0.0300
  454.0000      0.0298
  455.0000      0.0296
  456.0000      0.0295
  457.0000      0.0294
  458.0000      0.0292
  459.0000      0.0291
  460.0000      0.0290
  461.0000      0.0289
  462.0000      0.0288
  463.0000      0.0287
  464.0000      0.0287
  465.0000      0.0286
  466.0000      0.0285
  467.0000      0.0284
  468.0000      0.0282
  469.0000      0.0281
  470.0000      0.0280
  471.0000      0.0279
  472.0000      0.0280
  473.0000      0.0279
  474.0000      0.0278
  475.0000      0.0278
  476.0000      0.0277
  477.0000      0.0276
  478.0000      0.0276
  479.0000      0.0275
  480.0000      0.0274
  481.0000      0.0273
  482.0000      0.0272
  483.0000      0.0271
  484.0000      0.0271
  485.0000      0.0270
  486.0000      0.0269
  487.0000      0.0268
  488.0000      0.0268
  489.0000      0.0267
  490.0000      0.0266
  491.0000      0.0264
  492.0000      0.0264
  493.0000      0.0262
  494.0000      0.0262
  495.0000      0.0261
  496.0000      0.0260
  497.0000      0.0259
  498.0000      0.0258
  499.0000      0.0257
  500.0000      0.0256
  501.0000      0.0255
  502.0000      0.0255
  503.0000      0.0254
  504.0000      0.0252
  505.0000      0.0250
  506.0000      0.0249
  507.0000      0.0248
  508.0000      0.0246
  509.0000      0.0244
  510.0000      0.0242
  511.0000      0.0241
  512.0000      0.0240
  513.0000      0.0239
  514.0000      0.0238
  515.0000      0.0238
  516.0000      0.0237
  517.0000      0.0236
  518.0000      0.0235
  519.0000      0.0234
  520.0000      0.0233
  521.0000      0.0232
  522.0000      0.0231
  523.0000      0.0230
  524.0000      0.0228
  525.0000      0.0227
  526.0000      0.0226
  527.0000      0.0225
  528.0000      0.0224
  529.0000      0.0223
  530.0000      0.0222
  531.0000      0.0221
  532.0000      0.0220
  533.0000      0.0219
  534.0000      0.0218
  535.0000      0.0217
  536.0000      0.0216
  537.0000      0.0215
  538.0000      0.0214
  539.0000      0.0213
  540.0000      0.0213
  541.0000      0.0212
  542.0000      0.0211
  543.0000      0.0211
  544.0000      0.0211
  545.0000      0.0210
  546.0000      0.0208
  547.0000      0.0206
  548.0000      0.0205
  549.0000      0.0204
  550.0000      0.0203
  551.0000      0.0203
  552.0000      0.0203
  553.0000      0.0203
  554.0000      0.0203
  555.0000      0.0202
  556.0000      0.0202
  557.0000      0.0203
  558.0000      0.0203
  559.0000      0.0204
  560.0000      0.0203
  561.0000      0.0204
  562.0000      0.0203
  563.0000      0.0203
  564.0000      0.0202
  565.0000      0.0202
  566.0000      0.0202
  567.0000      0.0202
  568.0000      0.0202
  569.0000      0.0202
  570.0000      0.0202
  571.0000      0.0201
  572.0000      0.0200
  573.0000      0.0200
  574.0000      0.0199
  575.0000      0.0199
  576.0000      0.0198
  577.0000      0.0198
  578.0000      0.0197
  579.0000      0.0196
  580.0000      0.0196
  581.0000      0.0195
  582.0000      0.0194
  583.0000      0.0194
  584.0000      0.0193
  585.0000      0.0192
  586.0000      0.0191
  587.0000      0.0189
  588.0000      0.0189
  589.0000      0.0188
  590.0000      0.0187
  591.0000      0.0187
  592.0000      0.0186
  593.0000      0.0185
  594.0000      0.0185
  595.0000      0.0184
  596.0000      0.0184
  597.0000      0.0184
  598.0000      0.0184
  599.0000      0.0184
  600.0000      0.0184
  601.0000      0.0184
  602.0000      0.0184
  603.0000      0.0184
  604.0000      0.0184
  605.0000      0.0184
  606.0000      0.0184
  607.0000      0.0185
  608.0000      0.0185
  609.0000      0.0185
  610.0000      0.0185
  611.0000      0.0184
  612.0000      0.0185
  613.0000      0.0185
  614.0000      0.0184
  615.0000      0.0184
  616.0000      0.0183
  617.0000      0.0183
  618.0000      0.0183
  619.0000      0.0183
  620.0000      0.0183
  621.0000      0.0184
  622.0000      0.0184
  623.0000      0.0185
  624.0000      0.0185
  625.0000      0.0185
  626.0000      0.0186
  627.0000      0.0186
  628.0000      0.0186
  629.0000      0.0186
  630.0000      0.0186
  631.0000      0.0185
  632.0000      0.0184
  633.0000      0.0184
  634.0000      0.0183
  635.0000      0.0183
  636.0000      0.0182
  637.0000      0.0182
  638.0000      0.0182
  639.0000      0.0181
  640.0000      0.0181
  641.0000      0.0182
  642.0000      0.0181
  643.0000      0.0181
  644.0000      0.0182
  645.0000      0.0183
  646.0000      0.0183
  647.0000      0.0183
  648.0000      0.0183
  649.0000      0.0184
  650.0000      0.0183
  651.0000      0.0183
  652.0000      0.0182
  653.0000      0.0182
  654.0000      0.0181
  655.0000      0.0181
  656.0000      0.0181
  657.0000      0.0181
  658.0000      0.0181
  659.0000      0.0181
  660.0000      0.0181
  661.0000      0.0180
  662.0000      0.0180
  663.0000      0.0181
  664.0000      0.0181
  665.0000      0.0182
  666.0000      0.0182
  667.0000      0.0183
  668.0000      0.0183
  669.0000      0.0183
  670.0000      0.0183
  671.0000      0.0184
  672.0000      0.0184
  673.0000      0.0185
  674.0000      0.0186
  675.0000      0.0186
  676.0000      0.0186
  677.0000      0.0187
  678.0000      0.0187
  679.0000      0.0187
  680.0000      0.0186
  681.0000      0.0186
  682.0000      0.0185
  683.0000      0.0184
  684.0000      0.0183
  685.0000      0.0181
  686.0000      0.0179
  687.0000      0.0177
  688.0000      0.0175
  689.0000      0.0173
  690.0000      0.0171
  691.0000      0.0168
  692.0000      0.0166
  693.0000      0.0165
  694.0000      0.0163
  695.0000      0.0162
  696.0000      0.0160
  697.0000      0.0159
  698.0000      0.0158
  699.0000      0.0157
  700.0000      0.0157
  701.0000      0.0156
  702.0000      0.0155
  703.0000      0.0155
  704.0000      0.0155
  705.0000      0.0155
  706.0000      0.0154
  707.0000      0.0154
  708.0000      0.0153
  709.0000      0.0153
  710.0000      0.0152
  711.0000      0.0152
  712.0000      0.0151
  713.0000      0.0151
  714.0000      0.0151
  715.0000      0.0151
  716.0000      0.0151
  717.0000      0.0151
  718.0000      0.0151
  719.0000      0.0151
  720.0000      0.0151
  721.0000      0.0151
  722.0000      0.0151
  723.0000      0.0150
  724.0000      0.0150
  725.0000      0.0149
  726.0000      0.0148
  727.0000      0.0148
  728.0000      0.0148
  729.0000      0.0147
  730.0000      0.0146
  731.0000      0.0146
  732.0000      0.0145
  733.0000      0.0144
  734.0000      0.0143
  735.0000      0.0143
  736.0000      0.0132
  737.0000      0.0132
  738.0000      0.0132
  739.0000      0.0132
  740.0000      0.0132
  741.0000      0.0133
  742.0000      0.0133
  743.0000      0.0133
  744.0000      0.0133
  745.0000      0.0134
  746.0000      0.0134
  747.0000      0.0134
  748.0000      0.0134
  749.0000      0.0134
  750.0000      0.0134
  751.0000      0.0134
  752.0000      0.0135
  753.0000      0.0135
  754.0000      0.0134
  755.0000      0.0135
  756.0000      0.0134
  757.0000      0.0134
  758.0000      0.0134
  759.0000      0.0133
  760.0000      0.0134
  761.0000      0.0133
  762.0000      0.0133
  763.0000      0.0132
  764.0000      0.0132
  765.0000      0.0132
  766.0000      0.0133
  767.0000      0.0133
  768.0000      0.0133
  769.0000      0.0133
  770.0000      0.0133
  771.0000      0.0134
  772.0000      0.0134
  773.0000      0.0134
  774.0000      0.0134
  775.0000      0.0135
  776.0000      0.0136
  777.0000      0.0136
  778.0000      0.0137
  779.0000      0.0137
  780.0000      0.0137
  781.0000      0.0137
  782.0000      0.0138
  783.0000      0.0138
  784.0000      0.0138
  785.0000      0.0139
  786.0000      0.0139
  787.0000      0.0139
  788.0000      0.0140
  789.0000      0.0140
  790.0000      0.0140
  791.0000      0.0140
  792.0000      0.0140
  793.0000      0.0140
  794.0000      0.0140
  795.0000      0.0141
  796.0000      0.0141
  797.0000      0.0141
  798.0000      0.0141
  799.0000      0.0142
  800.0000      0.0141
