Start Wavelength:    200.0000
End Wavelength:    800.0000
Read Mode:  ABS
Read Average:      0.1000
Nanometer Interval:      1.0000
Time:      0.0000

  200.0000      0.4043
  201.0000      0.3563
  202.0000      0.3306
  203.0000      0.3094
  204.0000      0.2900
  205.0000      0.2753
  206.0000      0.2637
  207.0000      0.2526
  208.0000      0.2418
  209.0000      0.2315
  210.0000      0.2233
  211.0000      0.2149
  212.0000      0.2062
  213.0000      0.1978
  214.0000      0.1902
  215.0000      0.1827
  216.0000      0.1756
  217.0000      0.1679
  218.0000      0.1616
  219.0000      0.1553
  220.0000      0.1498
  221.0000      0.1427
  222.0000      0.1371
  223.0000      0.1325
  224.0000      0.1276
  225.0000      0.1227
  226.0000      0.1185
  227.0000      0.1146
  228.0000      0.1113
  229.0000      0.1073
  230.0000      0.1042
  231.0000      0.1011
  232.0000      0.0990
  233.0000      0.0960
  234.0000      0.0934
  235.0000      0.0916
  236.0000      0.0891
  237.0000      0.0874
  238.0000      0.0856
  239.0000      0.0837
  240.0000      0.0828
  241.0000      0.0813
  242.0000      0.0797
  243.0000      0.0788
  244.0000      0.0780
  245.0000      0.0769
  246.0000      0.0761
  247.0000      0.0755
  248.0000      0.0747
  249.0000      0.0740
  250.0000      0.0734
  251.0000      0.0725
  252.0000      0.0720
  253.0000      0.0711
  254.0000      0.0706
  255.0000      0.0704
  256.0000      0.0695
  257.0000      0.0691
  258.0000      0.0689
  259.0000      0.0686
  260.0000      0.0678
  261.0000      0.0672
  262.0000      0.0664
  263.0000      0.0663
  264.0000      0.0653
  265.0000      0.0646
  266.0000      0.0633
  267.0000      0.0632
  268.0000      0.0623
  269.0000      0.0615
  270.0000      0.0605
  271.0000      0.0597
  272.0000      0.0590
  273.0000      0.0588
  274.0000      0.0568
  275.0000      0.0565
  276.0000      0.0558
  277.0000      0.0550
  278.0000      0.0541
  279.0000      0.0526
  280.0000      0.0521
  281.0000      0.0512
  282.0000      0.0499
  283.0000      0.0490
  284.0000      0.0480
  285.0000      0.0469
  286.0000      0.0458
  287.0000      0.0453
  288.0000      0.0439
  289.0000      0.0430
  290.0000      0.0423
  291.0000      0.0413
  292.0000      0.0398
  293.0000      0.0396
  294.0000      0.0386
  295.0000      0.0379
  296.0000      0.0364
  297.0000      0.0358
  298.0000      0.0351
  299.0000      0.0348
  300.0000      0.0335
  301.0000      0.0324
  302.0000      0.0319
  303.0000      0.0317
  304.0000      0.0308
  305.0000      0.0301
  306.0000      0.0292
  307.0000      0.0287
  308.0000      0.0285
  309.0000      0.0276
  310.0000      0.0273
  311.0000      0.0272
  312.0000      0.0261
  313.0000      0.0256
  314.0000      0.0252
  315.0000      0.0250
  316.0000      0.0236
  317.0000      0.0247
  318.0000      0.0231
  319.0000      0.0227
  320.0000      0.0226
  321.0000      0.0229
  322.0000      0.0203
  323.0000      0.0197
  324.0000      0.0196
  325.0000      0.0187
  326.0000      0.0183
  327.0000      0.0181
  328.0000      0.0184
  329.0000      0.0175
  330.0000      0.0174
  331.0000      0.0174
  332.0000      0.0173
  333.0000      0.0167
  334.0000      0.0164
  335.0000      0.0159
  336.0000      0.0162
  337.0000      0.0153
  338.0000      0.0152
  339.0000      0.0153
  340.0000      0.0152
  341.0000      0.0144
  342.0000      0.0146
  343.0000      0.0143
  344.0000      0.0141
  345.0000      0.0142
  346.0000      0.0138
  347.0000      0.0133
  348.0000      0.0136
  349.0000      0.0132
  350.0000      0.0130
  351.0000      0.0127
  352.0000      0.0124
  353.0000      0.0121
  354.0000      0.0124
  355.0000      0.0116
  356.0000      0.0117
  357.0000      0.0112
  358.0000      0.0103
  359.0000      0.0132
  360.0000      0.0116
  361.0000      0.0108
  362.0000      0.0111
  363.0000      0.0105
  364.0000      0.0084
  365.0000      0.0109
  366.0000      0.0104
  367.0000      0.0096
  368.0000      0.0105
  369.0000      0.0097
  370.0000      0.0091
  371.0000      0.0087
  372.0000      0.0089
  373.0000      0.0090
  374.0000      0.0097
  375.0000      0.0084
  376.0000      0.0081
  377.0000      0.0096
  378.0000      0.0083
  379.0000      0.0081
  380.0000      0.0081
  381.0000      0.0073
  382.0000      0.0080
  383.0000      0.0078
  384.0000      0.0074
  385.0000      0.0069
  386.0000      0.0077
  387.0000      0.0075
  388.0000      0.0060
  389.0000      0.0069
  390.0000      0.0067
  391.0000      0.0070
  392.0000      0.0070
  393.0000      0.0059
  394.0000      0.0061
  395.0000      0.0063
  396.0000      0.0060
  397.0000      0.0056
  398.0000      0.0062
  399.0000      0.0056
  400.0000      0.0055
  401.0000      0.0051
  402.0000      0.0050
  403.0000      0.0049
  404.0000      0.0052
  405.0000      0.0047
  406.0000      0.0046
  407.0000      0.0053
  408.0000      0.0048
  409.0000      0.0045
  410.0000      0.0043
  411.0000      0.0042
  412.0000      0.0048
  413.0000      0.0045
  414.0000      0.0041
  415.0000      0.0042
  416.0000      0.0039
  417.0000      0.0039
  418.0000      0.0037
  419.0000      0.0038
  420.0000      0.0036
  421.0000      0.0035
  422.0000      0.0037
  423.0000      0.0034
  424.0000      0.0034
  425.0000      0.0032
  426.0000      0.0032
  427.0000      0.0033
  428.0000      0.0032
  429.0000      0.0031
  430.0000      0.0030
  431.0000      0.0030
  432.0000      0.0030
  433.0000      0.0028
  434.0000      0.0028
  435.0000      0.0028
  436.0000      0.0028
  437.0000      0.0026
  438.0000      0.0026
  439.0000      0.0025
  440.0000      0.0025
  441.0000      0.0024
  442.0000      0.0024
  443.0000      0.0023
  444.0000      0.0022
  445.0000      0.0023
  446.0000      0.0022
  447.0000      0.0021
  448.0000      0.0021
  449.0000      0.0021
  450.0000      0.0020
  451.0000      0.0019
  452.0000      0.0019
  453.0000      0.0018
  454.0000      0.0019
  455.0000      0.0017
  456.0000      0.0018
  457.0000      0.0017
  458.0000      0.0017
  459.0000      0.0016
  460.0000      0.0016
  461.0000      0.0015
  462.0000      0.0016
  463.0000      0.0015
  464.0000      0.0014
  465.0000      0.0015
  466.0000      0.0015
  467.0000      0.0014
  468.0000      0.0014
  469.0000      0.0014
  470.0000      0.0014
  471.0000      0.0013
  472.0000      0.0013
  473.0000      0.0013
  474.0000      0.0013
  475.0000      0.0012
  476.0000      0.0012
  477.0000      0.0012
  478.0000      0.0012
  479.0000      0.0012
  480.0000      0.0011
  481.0000      0.0010
  482.0000      0.0010
  483.0000      0.0010
  484.0000      0.0009
  485.0000      0.0009
  486.0000      0.0008
  487.0000      0.0008
  488.0000      0.0008
  489.0000      0.0008
  490.0000      0.0008
  491.0000      0.0008
  492.0000      0.0008
  493.0000      0.0007
  494.0000      0.0007
  495.0000      0.0007
  496.0000      0.0007
  497.0000      0.0007
  498.0000      0.0007
  499.0000      0.0006
  500.0000      0.0006
  501.0000      0.0006
  502.0000      0.0005
  503.0000      0.0006
  504.0000      0.0005
  505.0000      0.0005
  506.0000      0.0005
  507.0000      0.0005
  508.0000      0.0005
  509.0000      0.0005
  510.0000      0.0005
  511.0000      0.0005
  512.0000      0.0005
  513.0000      0.0004
  514.0000      0.0004
  515.0000      0.0004
  516.0000      0.0004
  517.0000      0.0003
  518.0000      0.0003
  519.0000      0.0003
  520.0000      0.0003
  521.0000      0.0003
  522.0000      0.0002
  523.0000      0.0003
  524.0000      0.0002
  525.0000      0.0002
  526.0000      0.0002
  527.0000      0.0002
  528.0000      0.0002
  529.0000      0.0002
  530.0000      0.0001
  531.0000      0.0001
  532.0000      0.0001
  533.0000      0.0001
  534.0000      0.0001
  535.0000      0.0001
  536.0000      0.0001
  537.0000      0.0001
  538.0000      0.0001
  539.0000      0.0000
  540.0000      0.0000
  541.0000      0.0000
  542.0000      0.0000
  543.0000      0.0000
  544.0000      0.0000
  545.0000      0.0001
  546.0000      0.0000
  547.0000      0.0000
  548.0000      0.0001
  549.0000      0.0001
  550.0000      0.0001
  551.0000      0.0001
  552.0000      0.0001
  553.0000      0.0001
  554.0000      0.0001
  555.0000      0.0001
  556.0000      0.0001
  557.0000      0.0003
  558.0000      0.0002
  559.0000      0.0002
  560.0000      0.0002
  561.0000      0.0001
  562.0000      0.0001
  563.0000      0.0000
  564.0000     -0.0000
  565.0000     -0.0000
  566.0000     -0.0001
  567.0000     -0.0001
  568.0000     -0.0001
  569.0000     -0.0001
  570.0000     -0.0002
  571.0000     -0.0001
  572.0000     -0.0002
  573.0000     -0.0002
  574.0000     -0.0001
  575.0000     -0.0001
  576.0000     -0.0001
  577.0000     -0.0002
  578.0000     -0.0002
  579.0000     -0.0001
  580.0000     -0.0002
  581.0000     -0.0002
  582.0000     -0.0002
  583.0000     -0.0002
  584.0000     -0.0002
  585.0000     -0.0002
  586.0000     -0.0002
  587.0000     -0.0003
  588.0000     -0.0003
  589.0000     -0.0003
  590.0000     -0.0003
  591.0000     -0.0003
  592.0000     -0.0003
  593.0000     -0.0003
  594.0000     -0.0003
  595.0000     -0.0003
  596.0000     -0.0003
  597.0000     -0.0003
  598.0000     -0.0003
  599.0000     -0.0003
  600.0000     -0.0003
  601.0000     -0.0004
  602.0000     -0.0004
  603.0000     -0.0004
  604.0000     -0.0004
  605.0000     -0.0004
  606.0000     -0.0004
  607.0000     -0.0004
  608.0000     -0.0004
  609.0000     -0.0004
  610.0000     -0.0004
  611.0000     -0.0004
  612.0000     -0.0004
  613.0000     -0.0004
  614.0000     -0.0004
  615.0000     -0.0004
  616.0000     -0.0004
  617.0000     -0.0004
  618.0000     -0.0004
  619.0000     -0.0004
  620.0000     -0.0004
  621.0000     -0.0004
  622.0000     -0.0003
  623.0000     -0.0004
  624.0000     -0.0004
  625.0000     -0.0004
  626.0000     -0.0004
  627.0000     -0.0003
  628.0000     -0.0004
  629.0000     -0.0004
  630.0000     -0.0003
  631.0000     -0.0003
  632.0000     -0.0003
  633.0000     -0.0003
  634.0000     -0.0003
  635.0000     -0.0003
  636.0000     -0.0003
  637.0000     -0.0003
  638.0000     -0.0002
  639.0000     -0.0003
  640.0000     -0.0003
  641.0000     -0.0003
  642.0000     -0.0003
  643.0000     -0.0003
  644.0000     -0.0003
  645.0000     -0.0003
  646.0000     -0.0002
  647.0000     -0.0002
  648.0000     -0.0002
  649.0000     -0.0003
  650.0000     -0.0002
  651.0000     -0.0002
  652.0000     -0.0003
  653.0000     -0.0002
  654.0000     -0.0003
  655.0000     -0.0002
  656.0000     -0.0002
  657.0000     -0.0002
  658.0000     -0.0002
  659.0000     -0.0002
  660.0000     -0.0002
  661.0000     -0.0002
  662.0000     -0.0002
  663.0000     -0.0002
  664.0000     -0.0002
  665.0000     -0.0002
  666.0000     -0.0002
  667.0000     -0.0002
  668.0000     -0.0002
  669.0000     -0.0002
  670.0000     -0.0002
  671.0000     -0.0002
  672.0000     -0.0002
  673.0000     -0.0002
  674.0000     -0.0002
  675.0000     -0.0002
  676.0000     -0.0002
  677.0000     -0.0002
  678.0000     -0.0002
  679.0000     -0.0002
  680.0000     -0.0002
  681.0000     -0.0002
  682.0000     -0.0002
  683.0000     -0.0002
  684.0000     -0.0002
  685.0000     -0.0002
  686.0000     -0.0002
  687.0000     -0.0002
  688.0000     -0.0002
  689.0000     -0.0002
  690.0000     -0.0002
  691.0000     -0.0002
  692.0000     -0.0002
  693.0000     -0.0002
  694.0000     -0.0002
  695.0000     -0.0002
  696.0000     -0.0002
  697.0000     -0.0002
  698.0000     -0.0002
  699.0000     -0.0002
  700.0000     -0.0002
  701.0000     -0.0002
  702.0000     -0.0002
  703.0000     -0.0002
  704.0000     -0.0003
  705.0000     -0.0002
  706.0000     -0.0002
  707.0000     -0.0003
  708.0000     -0.0003
  709.0000     -0.0003
  710.0000     -0.0003
  711.0000     -0.0003
  712.0000     -0.0003
  713.0000     -0.0003
  714.0000     -0.0003
  715.0000     -0.0003
  716.0000     -0.0003
  717.0000     -0.0003
  718.0000     -0.0003
  719.0000     -0.0003
  720.0000     -0.0004
  721.0000     -0.0004
  722.0000     -0.0004
  723.0000     -0.0004
  724.0000     -0.0004
  725.0000     -0.0004
  726.0000     -0.0004
  727.0000     -0.0005
  728.0000     -0.0005
  729.0000     -0.0006
  730.0000     -0.0005
  731.0000     -0.0006
  732.0000     -0.0006
  733.0000     -0.0006
  734.0000     -0.0006
  735.0000     -0.0007
  736.0000     -0.0008
  737.0000     -0.0008
  738.0000     -0.0009
  739.0000     -0.0009
  740.0000     -0.0008
  741.0000     -0.0009
  742.0000     -0.0009
  743.0000     -0.0009
  744.0000     -0.0008
  745.0000     -0.0008
  746.0000     -0.0008
  747.0000     -0.0008
  748.0000     -0.0008
  749.0000     -0.0008
  750.0000     -0.0008
  751.0000     -0.0007
  752.0000     -0.0007
  753.0000     -0.0007
  754.0000     -0.0007
  755.0000     -0.0007
  756.0000     -0.0006
  757.0000     -0.0006
  758.0000     -0.0007
  759.0000     -0.0006
  760.0000     -0.0006
  761.0000     -0.0006
  762.0000     -0.0006
  763.0000     -0.0005
  764.0000     -0.0005
  765.0000     -0.0005
  766.0000     -0.0005
  767.0000     -0.0004
  768.0000     -0.0005
  769.0000     -0.0005
  770.0000     -0.0004
  771.0000     -0.0004
  772.0000     -0.0004
  773.0000     -0.0004
  774.0000     -0.0004
  775.0000     -0.0004
  776.0000     -0.0003
  777.0000     -0.0004
  778.0000     -0.0003
  779.0000     -0.0004
  780.0000     -0.0004
  781.0000     -0.0004
  782.0000     -0.0004
  783.0000     -0.0003
  784.0000     -0.0003
  785.0000     -0.0003
  786.0000     -0.0003
  787.0000     -0.0003
  788.0000     -0.0003
  789.0000     -0.0003
  790.0000     -0.0004
  791.0000     -0.0004
  792.0000     -0.0003
  793.0000     -0.0004
  794.0000     -0.0003
  795.0000     -0.0003
  796.0000     -0.0003
  797.0000     -0.0003
  798.0000     -0.0004
  799.0000     -0.0004
  800.0000     -0.0004
