Start Wavelength:    200.0000
End Wavelength:    800.0000
Read Mode:  ABS
Read Average:      0.1000
Nanometer Interval:      1.0000
Time:      0.0000

  200.0000      0.4143
  201.0000      0.3642
  202.0000      0.3421
  203.0000      0.3217
  204.0000      0.3033
  205.0000      0.2881
  206.0000      0.2766
  207.0000      0.2663
  208.0000      0.2567
  209.0000      0.2461
  210.0000      0.2384
  211.0000      0.2315
  212.0000      0.2245
  213.0000      0.2174
  214.0000      0.2109
  215.0000      0.2047
  216.0000      0.1996
  217.0000      0.1937
  218.0000      0.1885
  219.0000      0.1834
  220.0000      0.1793
  221.0000      0.1741
  222.0000      0.1697
  223.0000      0.1658
  224.0000      0.1614
  225.0000      0.1579
  226.0000      0.1548
  227.0000      0.1509
  228.0000      0.1478
  229.0000      0.1445
  230.0000      0.1416
  231.0000      0.1388
  232.0000      0.1362
  233.0000      0.1330
  234.0000      0.1306
  235.0000      0.1287
  236.0000      0.1256
  237.0000      0.1236
  238.0000      0.1217
  239.0000      0.1196
  240.0000      0.1182
  241.0000      0.1162
  242.0000      0.1143
  243.0000      0.1135
  244.0000      0.1124
  245.0000      0.1109
  246.0000      0.1095
  247.0000      0.1088
  248.0000      0.1078
  249.0000      0.1070
  250.0000      0.1057
  251.0000      0.1045
  252.0000      0.1043
  253.0000      0.1033
  254.0000      0.1024
  255.0000      0.1017
  256.0000      0.1008
  257.0000      0.1001
  258.0000      0.0995
  259.0000      0.0986
  260.0000      0.0976
  261.0000      0.0968
  262.0000      0.0964
  263.0000      0.0955
  264.0000      0.0940
  265.0000      0.0932
  266.0000      0.0921
  267.0000      0.0913
  268.0000      0.0897
  269.0000      0.0886
  270.0000      0.0874
  271.0000      0.0860
  272.0000      0.0850
  273.0000      0.0838
  274.0000      0.0819
  275.0000      0.0813
  276.0000      0.0801
  277.0000      0.0785
  278.0000      0.0772
  279.0000      0.0759
  280.0000      0.0743
  281.0000      0.0728
  282.0000      0.0713
  283.0000      0.0701
  284.0000      0.0687
  285.0000      0.0672
  286.0000      0.0656
  287.0000      0.0642
  288.0000      0.0628
  289.0000      0.0612
  290.0000      0.0602
  291.0000      0.0588
  292.0000      0.0571
  293.0000      0.0563
  294.0000      0.0550
  295.0000      0.0532
  296.0000      0.0521
  297.0000      0.0509
  298.0000      0.0501
  299.0000      0.0490
  300.0000      0.0476
  301.0000      0.0464
  302.0000      0.0458
  303.0000      0.0452
  304.0000      0.0437
  305.0000      0.0427
  306.0000      0.0418
  307.0000      0.0411
  308.0000      0.0401
  309.0000      0.0392
  310.0000      0.0389
  311.0000      0.0385
  312.0000      0.0371
  313.0000      0.0363
  314.0000      0.0361
  315.0000      0.0353
  316.0000      0.0344
  317.0000      0.0342
  318.0000      0.0332
  319.0000      0.0326
  320.0000      0.0321
  321.0000      0.0320
  322.0000      0.0300
  323.0000      0.0292
  324.0000      0.0288
  325.0000      0.0278
  326.0000      0.0273
  327.0000      0.0269
  328.0000      0.0268
  329.0000      0.0261
  330.0000      0.0257
  331.0000      0.0255
  332.0000      0.0251
  333.0000      0.0242
  334.0000      0.0236
  335.0000      0.0235
  336.0000      0.0235
  337.0000      0.0228
  338.0000      0.0226
  339.0000      0.0220
  340.0000      0.0222
  341.0000      0.0215
  342.0000      0.0211
  343.0000      0.0207
  344.0000      0.0203
  345.0000      0.0204
  346.0000      0.0197
  347.0000      0.0192
  348.0000      0.0191
  349.0000      0.0189
  350.0000      0.0187
  351.0000      0.0180
  352.0000      0.0174
  353.0000      0.0173
  354.0000      0.0176
  355.0000      0.0165
  356.0000      0.0165
  357.0000      0.0162
  358.0000      0.0152
  359.0000      0.0164
  360.0000      0.0172
  361.0000      0.0149
  362.0000      0.0147
  363.0000      0.0155
  364.0000      0.0135
  365.0000      0.0149
  366.0000      0.0143
  367.0000      0.0136
  368.0000      0.0145
  369.0000      0.0143
  370.0000      0.0129
  371.0000      0.0126
  372.0000      0.0122
  373.0000      0.0125
  374.0000      0.0134
  375.0000      0.0116
  376.0000      0.0117
  377.0000      0.0125
  378.0000      0.0125
  379.0000      0.0111
  380.0000      0.0116
  381.0000      0.0109
  382.0000      0.0112
  383.0000      0.0109
  384.0000      0.0099
  385.0000      0.0098
  386.0000      0.0107
  387.0000      0.0100
  388.0000      0.0087
  389.0000      0.0096
  390.0000      0.0095
  391.0000      0.0095
  392.0000      0.0092
  393.0000      0.0086
  394.0000      0.0088
  395.0000      0.0088
  396.0000      0.0079
  397.0000      0.0080
  398.0000      0.0085
  399.0000      0.0080
  400.0000      0.0084
  401.0000      0.0076
  402.0000      0.0072
  403.0000      0.0074
  404.0000      0.0074
  405.0000      0.0066
  406.0000      0.0068
  407.0000      0.0074
  408.0000      0.0069
  409.0000      0.0069
  410.0000      0.0064
  411.0000      0.0062
  412.0000      0.0065
  413.0000      0.0063
  414.0000      0.0060
  415.0000      0.0057
  416.0000      0.0057
  417.0000      0.0057
  418.0000      0.0056
  419.0000      0.0055
  420.0000      0.0053
  421.0000      0.0053
  422.0000      0.0052
  423.0000      0.0051
  424.0000      0.0051
  425.0000      0.0049
  426.0000      0.0048
  427.0000      0.0048
  428.0000      0.0047
  429.0000      0.0046
  430.0000      0.0046
  431.0000      0.0045
  432.0000      0.0044
  433.0000      0.0043
  434.0000      0.0042
  435.0000      0.0042
  436.0000      0.0042
  437.0000      0.0040
  438.0000      0.0040
  439.0000      0.0040
  440.0000      0.0038
  441.0000      0.0037
  442.0000      0.0037
  443.0000      0.0036
  444.0000      0.0035
  445.0000      0.0035
  446.0000      0.0034
  447.0000      0.0033
  448.0000      0.0033
  449.0000      0.0033
  450.0000      0.0032
  451.0000      0.0031
  452.0000      0.0031
  453.0000      0.0030
  454.0000      0.0030
  455.0000      0.0029
  456.0000      0.0029
  457.0000      0.0029
  458.0000      0.0028
  459.0000      0.0028
  460.0000      0.0027
  461.0000      0.0027
  462.0000      0.0027
  463.0000      0.0027
  464.0000      0.0027
  465.0000      0.0027
  466.0000      0.0028
  467.0000      0.0027
  468.0000      0.0027
  469.0000      0.0026
  470.0000      0.0027
  471.0000      0.0027
  472.0000      0.0026
  473.0000      0.0025
  474.0000      0.0025
  475.0000      0.0025
  476.0000      0.0024
  477.0000      0.0024
  478.0000      0.0023
  479.0000      0.0023
  480.0000      0.0022
  481.0000      0.0022
  482.0000      0.0021
  483.0000      0.0021
  484.0000      0.0020
  485.0000      0.0020
  486.0000      0.0019
  487.0000      0.0019
  488.0000      0.0019
  489.0000      0.0019
  490.0000      0.0019
  491.0000      0.0019
  492.0000      0.0018
  493.0000      0.0018
  494.0000      0.0017
  495.0000      0.0017
  496.0000      0.0016
  497.0000      0.0016
  498.0000      0.0016
  499.0000      0.0015
  500.0000      0.0015
  501.0000      0.0015
  502.0000      0.0015
  503.0000      0.0015
  504.0000      0.0014
  505.0000      0.0014
  506.0000      0.0014
  507.0000      0.0013
  508.0000      0.0013
  509.0000      0.0013
  510.0000      0.0013
  511.0000      0.0013
  512.0000      0.0013
  513.0000      0.0012
  514.0000      0.0012
  515.0000      0.0012
  516.0000      0.0012
  517.0000      0.0012
  518.0000      0.0011
  519.0000      0.0011
  520.0000      0.0011
  521.0000      0.0011
  522.0000      0.0011
  523.0000      0.0011
  524.0000      0.0010
  525.0000      0.0010
  526.0000      0.0010
  527.0000      0.0009
  528.0000      0.0009
  529.0000      0.0009
  530.0000      0.0009
  531.0000      0.0008
  532.0000      0.0008
  533.0000      0.0008
  534.0000      0.0008
  535.0000      0.0008
  536.0000      0.0007
  537.0000      0.0008
  538.0000      0.0007
  539.0000      0.0007
  540.0000      0.0007
  541.0000      0.0007
  542.0000      0.0006
  543.0000      0.0007
  544.0000      0.0007
  545.0000      0.0006
  546.0000      0.0006
  547.0000      0.0006
  548.0000      0.0005
  549.0000      0.0005
  550.0000      0.0005
  551.0000      0.0005
  552.0000      0.0005
  553.0000      0.0004
  554.0000      0.0004
  555.0000      0.0004
  556.0000      0.0004
  557.0000      0.0009
  558.0000      0.0008
  559.0000      0.0008
  560.0000      0.0008
  561.0000      0.0007
  562.0000      0.0007
  563.0000      0.0006
  564.0000      0.0006
  565.0000      0.0006
  566.0000      0.0005
  567.0000      0.0005
  568.0000      0.0005
  569.0000      0.0005
  570.0000      0.0005
  571.0000      0.0005
  572.0000      0.0005
  573.0000      0.0004
  574.0000      0.0004
  575.0000      0.0004
  576.0000      0.0004
  577.0000      0.0004
  578.0000      0.0004
  579.0000      0.0004
  580.0000      0.0004
  581.0000      0.0003
  582.0000      0.0003
  583.0000      0.0003
  584.0000      0.0003
  585.0000      0.0003
  586.0000      0.0003
  587.0000      0.0003
  588.0000      0.0002
  589.0000      0.0003
  590.0000      0.0002
  591.0000      0.0002
  592.0000      0.0002
  593.0000      0.0002
  594.0000      0.0002
  595.0000      0.0002
  596.0000      0.0002
  597.0000      0.0002
  598.0000      0.0002
  599.0000      0.0002
  600.0000      0.0002
  601.0000      0.0001
  602.0000      0.0001
  603.0000      0.0001
  604.0000      0.0001
  605.0000      0.0001
  606.0000      0.0001
  607.0000      0.0001
  608.0000      0.0002
  609.0000      0.0001
  610.0000      0.0001
  611.0000      0.0001
  612.0000      0.0001
  613.0000      0.0001
  614.0000      0.0001
  615.0000      0.0001
  616.0000      0.0001
  617.0000      0.0001
  618.0000      0.0001
  619.0000      0.0001
  620.0000      0.0001
  621.0000      0.0001
  622.0000      0.0001
  623.0000      0.0001
  624.0000      0.0001
  625.0000      0.0001
  626.0000      0.0001
  627.0000      0.0002
  628.0000      0.0002
  629.0000      0.0002
  630.0000      0.0002
  631.0000      0.0002
  632.0000      0.0002
  633.0000      0.0002
  634.0000      0.0002
  635.0000      0.0002
  636.0000      0.0002
  637.0000      0.0002
  638.0000      0.0002
  639.0000      0.0002
  640.0000      0.0002
  641.0000      0.0002
  642.0000      0.0002
  643.0000      0.0002
  644.0000      0.0002
  645.0000      0.0002
  646.0000      0.0002
  647.0000      0.0002
  648.0000      0.0002
  649.0000      0.0002
  650.0000      0.0003
  651.0000      0.0002
  652.0000      0.0002
  653.0000      0.0002
  654.0000      0.0002
  655.0000      0.0003
  656.0000      0.0003
  657.0000      0.0003
  658.0000      0.0003
  659.0000      0.0003
  660.0000      0.0003
  661.0000      0.0003
  662.0000      0.0003
  663.0000      0.0003
  664.0000      0.0003
  665.0000      0.0002
  666.0000      0.0002
  667.0000      0.0003
  668.0000      0.0002
  669.0000      0.0002
  670.0000      0.0002
  671.0000      0.0002
  672.0000      0.0003
  673.0000      0.0003
  674.0000      0.0003
  675.0000      0.0003
  676.0000      0.0003
  677.0000      0.0002
  678.0000      0.0002
  679.0000      0.0002
  680.0000      0.0002
  681.0000      0.0002
  682.0000      0.0002
  683.0000      0.0002
  684.0000      0.0003
  685.0000      0.0003
  686.0000      0.0002
  687.0000      0.0002
  688.0000      0.0002
  689.0000      0.0002
  690.0000      0.0002
  691.0000      0.0002
  692.0000      0.0002
  693.0000      0.0002
  694.0000      0.0003
  695.0000      0.0003
  696.0000      0.0002
  697.0000      0.0003
  698.0000      0.0003
  699.0000      0.0002
  700.0000      0.0002
  701.0000      0.0002
  702.0000      0.0002
  703.0000      0.0002
  704.0000      0.0001
  705.0000      0.0002
  706.0000      0.0002
  707.0000      0.0002
  708.0000      0.0002
  709.0000      0.0001
  710.0000      0.0001
  711.0000      0.0002
  712.0000      0.0001
  713.0000      0.0001
  714.0000      0.0001
  715.0000      0.0001
  716.0000      0.0001
  717.0000      0.0001
  718.0000      0.0001
  719.0000      0.0001
  720.0000      0.0000
  721.0000     -0.0000
  722.0000     -0.0000
  723.0000     -0.0000
  724.0000     -0.0000
  725.0000     -0.0000
  726.0000     -0.0000
  727.0000     -0.0001
  728.0000     -0.0001
  729.0000     -0.0001
  730.0000     -0.0002
  731.0000     -0.0002
  732.0000     -0.0002
  733.0000     -0.0002
  734.0000     -0.0002
  735.0000     -0.0003
  736.0000     -0.0004
  737.0000     -0.0004
  738.0000     -0.0005
  739.0000     -0.0005
  740.0000     -0.0005
  741.0000     -0.0005
  742.0000     -0.0004
  743.0000     -0.0005
  744.0000     -0.0005
  745.0000     -0.0005
  746.0000     -0.0004
  747.0000     -0.0004
  748.0000     -0.0004
  749.0000     -0.0005
  750.0000     -0.0004
  751.0000     -0.0003
  752.0000     -0.0004
  753.0000     -0.0004
  754.0000     -0.0003
  755.0000     -0.0004
  756.0000     -0.0003
  757.0000     -0.0003
  758.0000     -0.0003
  759.0000     -0.0003
  760.0000     -0.0003
  761.0000     -0.0003
  762.0000     -0.0002
  763.0000     -0.0003
  764.0000     -0.0002
  765.0000     -0.0002
  766.0000     -0.0002
  767.0000     -0.0002
  768.0000     -0.0001
  769.0000     -0.0002
  770.0000     -0.0002
  771.0000     -0.0001
  772.0000     -0.0001
  773.0000     -0.0001
  774.0000     -0.0000
  775.0000     -0.0001
  776.0000     -0.0000
  777.0000     -0.0001
  778.0000     -0.0001
  779.0000     -0.0000
  780.0000     -0.0000
  781.0000     -0.0000
  782.0000     -0.0000
  783.0000      0.0000
  784.0000      0.0000
  785.0000      0.0000
  786.0000      0.0000
  787.0000      0.0001
  788.0000      0.0001
  789.0000      0.0001
  790.0000      0.0000
  791.0000      0.0001
  792.0000      0.0001
  793.0000      0.0000
  794.0000      0.0001
  795.0000      0.0001
  796.0000      0.0001
  797.0000      0.0001
  798.0000      0.0001
  799.0000     -0.0000
  800.0000     -0.0001
