Start Wavelength:    200.0000
End Wavelength:    800.0000
Read Mode:  ABS
Read Average:      0.1000
Nanometer Interval:      1.0000
Time:      0.0000

  200.0000      0.5532
  201.0000      0.5013
  202.0000      0.4744
  203.0000      0.4529
  204.0000      0.4297
  205.0000      0.4144
  206.0000      0.4007
  207.0000      0.3896
  208.0000      0.3775
  209.0000      0.3664
  210.0000      0.3581
  211.0000      0.3500
  212.0000      0.3417
  213.0000      0.3332
  214.0000      0.3273
  215.0000      0.3208
  216.0000      0.3148
  217.0000      0.3084
  218.0000      0.3030
  219.0000      0.2984
  220.0000      0.2938
  221.0000      0.2879
  222.0000      0.2831
  223.0000      0.2791
  224.0000      0.2746
  225.0000      0.2702
  226.0000      0.2664
  227.0000      0.2626
  228.0000      0.2595
  229.0000      0.2549
  230.0000      0.2514
  231.0000      0.2483
  232.0000      0.2449
  233.0000      0.2414
  234.0000      0.2382
  235.0000      0.2357
  236.0000      0.2328
  237.0000      0.2300
  238.0000      0.2278
  239.0000      0.2248
  240.0000      0.2235
  241.0000      0.2215
  242.0000      0.2193
  243.0000      0.2180
  244.0000      0.2163
  245.0000      0.2148
  246.0000      0.2142
  247.0000      0.2126
  248.0000      0.2113
  249.0000      0.2105
  250.0000      0.2096
  251.0000      0.2087
  252.0000      0.2077
  253.0000      0.2068
  254.0000      0.2058
  255.0000      0.2053
  256.0000      0.2039
  257.0000      0.2025
  258.0000      0.2024
  259.0000      0.2015
  260.0000      0.1997
  261.0000      0.1992
  262.0000      0.1981
  263.0000      0.1971
  264.0000      0.1957
  265.0000      0.1943
  266.0000      0.1930
  267.0000      0.1919
  268.0000      0.1904
  269.0000      0.1886
  270.0000      0.1865
  271.0000      0.1854
  272.0000      0.1840
  273.0000      0.1826
  274.0000      0.1800
  275.0000      0.1793
  276.0000      0.1777
  277.0000      0.1755
  278.0000      0.1736
  279.0000      0.1722
  280.0000      0.1701
  281.0000      0.1689
  282.0000      0.1666
  283.0000      0.1642
  284.0000      0.1631
  285.0000      0.1615
  286.0000      0.1590
  287.0000      0.1572
  288.0000      0.1555
  289.0000      0.1532
  290.0000      0.1519
  291.0000      0.1495
  292.0000      0.1476
  293.0000      0.1459
  294.0000      0.1445
  295.0000      0.1425
  296.0000      0.1405
  297.0000      0.1393
  298.0000      0.1377
  299.0000      0.1361
  300.0000      0.1348
  301.0000      0.1328
  302.0000      0.1314
  303.0000      0.1304
  304.0000      0.1284
  305.0000      0.1275
  306.0000      0.1255
  307.0000      0.1249
  308.0000      0.1236
  309.0000      0.1219
  310.0000      0.1212
  311.0000      0.1208
  312.0000      0.1192
  313.0000      0.1184
  314.0000      0.1176
  315.0000      0.1167
  316.0000      0.1156
  317.0000      0.1147
  318.0000      0.1138
  319.0000      0.1127
  320.0000      0.1120
  321.0000      0.1119
  322.0000      0.1085
  323.0000      0.1070
  324.0000      0.1062
  325.0000      0.1056
  326.0000      0.1051
  327.0000      0.1041
  328.0000      0.1036
  329.0000      0.1031
  330.0000      0.1021
  331.0000      0.1019
  332.0000      0.1008
  333.0000      0.1002
  334.0000      0.0998
  335.0000      0.0994
  336.0000      0.0988
  337.0000      0.0979
  338.0000      0.0976
  339.0000      0.0970
  340.0000      0.0965
  341.0000      0.0952
  342.0000      0.0954
  343.0000      0.0945
  344.0000      0.0942
  345.0000      0.0940
  346.0000      0.0931
  347.0000      0.0925
  348.0000      0.0927
  349.0000      0.0921
  350.0000      0.0912
  351.0000      0.0909
  352.0000      0.0903
  353.0000      0.0896
  354.0000      0.0894
  355.0000      0.0886
  356.0000      0.0885
  357.0000      0.0886
  358.0000      0.0868
  359.0000      0.0876
  360.0000      0.0867
  361.0000      0.0849
  362.0000      0.0866
  363.0000      0.0847
  364.0000      0.0834
  365.0000      0.0862
  366.0000      0.0858
  367.0000      0.0843
  368.0000      0.0837
  369.0000      0.0844
  370.0000      0.0831
  371.0000      0.0829
  372.0000      0.0815
  373.0000      0.0817
  374.0000      0.0830
  375.0000      0.0814
  376.0000      0.0806
  377.0000      0.0815
  378.0000      0.0810
  379.0000      0.0808
  380.0000      0.0802
  381.0000      0.0784
  382.0000      0.0791
  383.0000      0.0789
  384.0000      0.0784
  385.0000      0.0773
  386.0000      0.0783
  387.0000      0.0776
  388.0000      0.0770
  389.0000      0.0767
  390.0000      0.0757
  391.0000      0.0760
  392.0000      0.0767
  393.0000      0.0756
  394.0000      0.0753
  395.0000      0.0757
  396.0000      0.0752
  397.0000      0.0748
  398.0000      0.0746
  399.0000      0.0744
  400.0000      0.0741
  401.0000      0.0739
  402.0000      0.0730
  403.0000      0.0731
  404.0000      0.0727
  405.0000      0.0723
  406.0000      0.0724
  407.0000      0.0725
  408.0000      0.0719
  409.0000      0.0718
  410.0000      0.0718
  411.0000      0.0708
  412.0000      0.0711
  413.0000      0.0707
  414.0000      0.0706
  415.0000      0.0701
  416.0000      0.0692
  417.0000      0.0690
  418.0000      0.0687
  419.0000      0.0686
  420.0000      0.0684
  421.0000      0.0680
  422.0000      0.0680
  423.0000      0.0677
  424.0000      0.0675
  425.0000      0.0673
  426.0000      0.0671
  427.0000      0.0670
  428.0000      0.0667
  429.0000      0.0667
  430.0000      0.0668
  431.0000      0.0669
  432.0000      0.0670
  433.0000      0.0667
  434.0000      0.0667
  435.0000      0.0665
  436.0000      0.0666
  437.0000      0.0664
  438.0000      0.0661
  439.0000      0.0659
  440.0000      0.0657
  441.0000      0.0655
  442.0000      0.0653
  443.0000      0.0650
  444.0000      0.0647
  445.0000      0.0645
  446.0000      0.0643
  447.0000      0.0640
  448.0000      0.0638
  449.0000      0.0635
  450.0000      0.0633
  451.0000      0.0630
  452.0000      0.0627
  453.0000      0.0625
  454.0000      0.0623
  455.0000      0.0620
  456.0000      0.0618
  457.0000      0.0616
  458.0000      0.0614
  459.0000      0.0613
  460.0000      0.0611
  461.0000      0.0610
  462.0000      0.0610
  463.0000      0.0609
  464.0000      0.0608
  465.0000      0.0608
  466.0000      0.0608
  467.0000      0.0607
  468.0000      0.0606
  469.0000      0.0605
  470.0000      0.0604
  471.0000      0.0601
  472.0000      0.0600
  473.0000      0.0598
  474.0000      0.0596
  475.0000      0.0593
  476.0000      0.0591
  477.0000      0.0590
  478.0000      0.0588
  479.0000      0.0586
  480.0000      0.0584
  481.0000      0.0582
  482.0000      0.0580
  483.0000      0.0578
  484.0000      0.0576
  485.0000      0.0575
  486.0000      0.0573
  487.0000      0.0572
  488.0000      0.0571
  489.0000      0.0569
  490.0000      0.0568
  491.0000      0.0567
  492.0000      0.0566
  493.0000      0.0564
  494.0000      0.0562
  495.0000      0.0560
  496.0000      0.0558
  497.0000      0.0557
  498.0000      0.0555
  499.0000      0.0553
  500.0000      0.0552
  501.0000      0.0550
  502.0000      0.0549
  503.0000      0.0548
  504.0000      0.0546
  505.0000      0.0545
  506.0000      0.0544
  507.0000      0.0543
  508.0000      0.0541
  509.0000      0.0540
  510.0000      0.0539
  511.0000      0.0538
  512.0000      0.0537
  513.0000      0.0536
  514.0000      0.0534
  515.0000      0.0533
  516.0000      0.0532
  517.0000      0.0530
  518.0000      0.0529
  519.0000      0.0527
  520.0000      0.0526
  521.0000      0.0524
  522.0000      0.0523
  523.0000      0.0522
  524.0000      0.0520
  525.0000      0.0518
  526.0000      0.0517
  527.0000      0.0516
  528.0000      0.0515
  529.0000      0.0514
  530.0000      0.0512
  531.0000      0.0511
  532.0000      0.0510
  533.0000      0.0509
  534.0000      0.0508
  535.0000      0.0507
  536.0000      0.0507
  537.0000      0.0506
  538.0000      0.0506
  539.0000      0.0505
  540.0000      0.0505
  541.0000      0.0504
  542.0000      0.0502
  543.0000      0.0501
  544.0000      0.0500
  545.0000      0.0500
  546.0000      0.0499
  547.0000      0.0497
  548.0000      0.0497
  549.0000      0.0496
  550.0000      0.0495
  551.0000      0.0495
  552.0000      0.0495
  553.0000      0.0495
  554.0000      0.0494
  555.0000      0.0493
  556.0000      0.0492
  557.0000      0.0490
  558.0000      0.0489
  559.0000      0.0488
  560.0000      0.0487
  561.0000      0.0485
  562.0000      0.0484
  563.0000      0.0483
  564.0000      0.0483
  565.0000      0.0482
  566.0000      0.0482
  567.0000      0.0481
  568.0000      0.0481
  569.0000      0.0480
  570.0000      0.0480
  571.0000      0.0480
  572.0000      0.0479
  573.0000      0.0479
  574.0000      0.0478
  575.0000      0.0478
  576.0000      0.0477
  577.0000      0.0476
  578.0000      0.0475
  579.0000      0.0475
  580.0000      0.0474
  581.0000      0.0474
  582.0000      0.0474
  583.0000      0.0473
  584.0000      0.0473
  585.0000      0.0473
  586.0000      0.0472
  587.0000      0.0472
  588.0000      0.0471
  589.0000      0.0470
  590.0000      0.0469
  591.0000      0.0468
  592.0000      0.0466
  593.0000      0.0464
  594.0000      0.0463
  595.0000      0.0461
  596.0000      0.0461
  597.0000      0.0460
  598.0000      0.0459
  599.0000      0.0459
  600.0000      0.0458
  601.0000      0.0457
  602.0000      0.0456
  603.0000      0.0455
  604.0000      0.0454
  605.0000      0.0454
  606.0000      0.0453
  607.0000      0.0453
  608.0000      0.0452
  609.0000      0.0451
  610.0000      0.0451
  611.0000      0.0450
  612.0000      0.0450
  613.0000      0.0449
  614.0000      0.0448
  615.0000      0.0447
  616.0000      0.0446
  617.0000      0.0446
  618.0000      0.0446
  619.0000      0.0446
  620.0000      0.0445
  621.0000      0.0446
  622.0000      0.0445
  623.0000      0.0444
  624.0000      0.0445
  625.0000      0.0444
  626.0000      0.0444
  627.0000      0.0443
  628.0000      0.0442
  629.0000      0.0442
  630.0000      0.0442
  631.0000      0.0442
  632.0000      0.0441
  633.0000      0.0440
  634.0000      0.0439
  635.0000      0.0438
  636.0000      0.0437
  637.0000      0.0436
  638.0000      0.0435
  639.0000      0.0435
  640.0000      0.0434
  641.0000      0.0433
  642.0000      0.0432
  643.0000      0.0431
  644.0000      0.0431
  645.0000      0.0431
  646.0000      0.0431
  647.0000      0.0431
  648.0000      0.0431
  649.0000      0.0430
  650.0000      0.0431
  651.0000      0.0430
  652.0000      0.0430
  653.0000      0.0430
  654.0000      0.0429
  655.0000      0.0429
  656.0000      0.0429
  657.0000      0.0429
  658.0000      0.0428
  659.0000      0.0428
  660.0000      0.0428
  661.0000      0.0428
  662.0000      0.0428
  663.0000      0.0428
  664.0000      0.0428
  665.0000      0.0429
  666.0000      0.0429
  667.0000      0.0429
  668.0000      0.0429
  669.0000      0.0429
  670.0000      0.0430
  671.0000      0.0430
  672.0000      0.0430
  673.0000      0.0430
  674.0000      0.0431
  675.0000      0.0431
  676.0000      0.0430
  677.0000      0.0430
  678.0000      0.0429
  679.0000      0.0429
  680.0000      0.0429
  681.0000      0.0428
  682.0000      0.0428
  683.0000      0.0427
  684.0000      0.0426
  685.0000      0.0425
  686.0000      0.0424
  687.0000      0.0423
  688.0000      0.0421
  689.0000      0.0420
  690.0000      0.0419
  691.0000      0.0417
  692.0000      0.0416
  693.0000      0.0415
  694.0000      0.0413
  695.0000      0.0412
  696.0000      0.0410
  697.0000      0.0409
  698.0000      0.0409
  699.0000      0.0407
  700.0000      0.0406
  701.0000      0.0405
  702.0000      0.0404
  703.0000      0.0404
  704.0000      0.0403
  705.0000      0.0403
  706.0000      0.0402
  707.0000      0.0401
  708.0000      0.0401
  709.0000      0.0400
  710.0000      0.0400
  711.0000      0.0399
  712.0000      0.0398
  713.0000      0.0398
  714.0000      0.0398
  715.0000      0.0398
  716.0000      0.0397
  717.0000      0.0397
  718.0000      0.0396
  719.0000      0.0396
  720.0000      0.0395
  721.0000      0.0394
  722.0000      0.0394
  723.0000      0.0393
  724.0000      0.0392
  725.0000      0.0392
  726.0000      0.0391
  727.0000      0.0390
  728.0000      0.0389
  729.0000      0.0388
  730.0000      0.0388
  731.0000      0.0386
  732.0000      0.0385
  733.0000      0.0385
  734.0000      0.0384
  735.0000      0.0383
  736.0000      0.0379
  737.0000      0.0379
  738.0000      0.0378
  739.0000      0.0378
  740.0000      0.0377
  741.0000      0.0377
  742.0000      0.0376
  743.0000      0.0376
  744.0000      0.0376
  745.0000      0.0375
  746.0000      0.0375
  747.0000      0.0374
  748.0000      0.0374
  749.0000      0.0373
  750.0000      0.0373
  751.0000      0.0373
  752.0000      0.0372
  753.0000      0.0372
  754.0000      0.0372
  755.0000      0.0371
  756.0000      0.0371
  757.0000      0.0371
  758.0000      0.0370
  759.0000      0.0371
  760.0000      0.0370
  761.0000      0.0369
  762.0000      0.0369
  763.0000      0.0369
  764.0000      0.0368
  765.0000      0.0368
  766.0000      0.0367
  767.0000      0.0367
  768.0000      0.0367
  769.0000      0.0366
  770.0000      0.0365
  771.0000      0.0365
  772.0000      0.0365
  773.0000      0.0364
  774.0000      0.0364
  775.0000      0.0364
  776.0000      0.0363
  777.0000      0.0363
  778.0000      0.0363
  779.0000      0.0362
  780.0000      0.0361
  781.0000      0.0361
  782.0000      0.0360
  783.0000      0.0360
  784.0000      0.0359
  785.0000      0.0359
  786.0000      0.0358
  787.0000      0.0359
  788.0000      0.0358
  789.0000      0.0357
  790.0000      0.0356
  791.0000      0.0356
  792.0000      0.0356
  793.0000      0.0355
  794.0000      0.0355
  795.0000      0.0355
  796.0000      0.0354
  797.0000      0.0354
  798.0000      0.0354
  799.0000      0.0353
  800.0000      0.0352
