Start Wavelength:    200.0000
End Wavelength:    800.0000
Read Mode:  ABS
Read Average:      0.1000
Nanometer Interval:      1.0000
Time:      0.0000

  200.0000      0.4586
  201.0000      0.4066
  202.0000      0.3822
  203.0000      0.3582
  204.0000      0.3380
  205.0000      0.3222
  206.0000      0.3096
  207.0000      0.2970
  208.0000      0.2848
  209.0000      0.2743
  210.0000      0.2649
  211.0000      0.2546
  212.0000      0.2455
  213.0000      0.2361
  214.0000      0.2274
  215.0000      0.2191
  216.0000      0.2108
  217.0000      0.2023
  218.0000      0.1947
  219.0000      0.1880
  220.0000      0.1815
  221.0000      0.1733
  222.0000      0.1679
  223.0000      0.1625
  224.0000      0.1567
  225.0000      0.1514
  226.0000      0.1465
  227.0000      0.1421
  228.0000      0.1384
  229.0000      0.1339
  230.0000      0.1301
  231.0000      0.1271
  232.0000      0.1238
  233.0000      0.1205
  234.0000      0.1178
  235.0000      0.1154
  236.0000      0.1130
  237.0000      0.1106
  238.0000      0.1088
  239.0000      0.1066
  240.0000      0.1055
  241.0000      0.1039
  242.0000      0.1024
  243.0000      0.1013
  244.0000      0.1000
  245.0000      0.0990
  246.0000      0.0984
  247.0000      0.0976
  248.0000      0.0968
  249.0000      0.0961
  250.0000      0.0954
  251.0000      0.0949
  252.0000      0.0945
  253.0000      0.0938
  254.0000      0.0932
  255.0000      0.0931
  256.0000      0.0925
  257.0000      0.0917
  258.0000      0.0916
  259.0000      0.0914
  260.0000      0.0903
  261.0000      0.0901
  262.0000      0.0890
  263.0000      0.0887
  264.0000      0.0882
  265.0000      0.0872
  266.0000      0.0860
  267.0000      0.0857
  268.0000      0.0848
  269.0000      0.0847
  270.0000      0.0829
  271.0000      0.0823
  272.0000      0.0813
  273.0000      0.0811
  274.0000      0.0794
  275.0000      0.0787
  276.0000      0.0779
  277.0000      0.0772
  278.0000      0.0762
  279.0000      0.0757
  280.0000      0.0740
  281.0000      0.0735
  282.0000      0.0725
  283.0000      0.0710
  284.0000      0.0702
  285.0000      0.0691
  286.0000      0.0682
  287.0000      0.0673
  288.0000      0.0659
  289.0000      0.0645
  290.0000      0.0636
  291.0000      0.0630
  292.0000      0.0618
  293.0000      0.0603
  294.0000      0.0598
  295.0000      0.0589
  296.0000      0.0577
  297.0000      0.0567
  298.0000      0.0558
  299.0000      0.0556
  300.0000      0.0546
  301.0000      0.0536
  302.0000      0.0526
  303.0000      0.0519
  304.0000      0.0511
  305.0000      0.0510
  306.0000      0.0495
  307.0000      0.0489
  308.0000      0.0491
  309.0000      0.0482
  310.0000      0.0475
  311.0000      0.0473
  312.0000      0.0463
  313.0000      0.0458
  314.0000      0.0462
  315.0000      0.0453
  316.0000      0.0439
  317.0000      0.0445
  318.0000      0.0438
  319.0000      0.0425
  320.0000      0.0419
  321.0000      0.0425
  322.0000      0.0398
  323.0000      0.0394
  324.0000      0.0390
  325.0000      0.0389
  326.0000      0.0377
  327.0000      0.0371
  328.0000      0.0373
  329.0000      0.0369
  330.0000      0.0365
  331.0000      0.0363
  332.0000      0.0363
  333.0000      0.0362
  334.0000      0.0359
  335.0000      0.0353
  336.0000      0.0354
  337.0000      0.0349
  338.0000      0.0350
  339.0000      0.0342
  340.0000      0.0341
  341.0000      0.0334
  342.0000      0.0338
  343.0000      0.0336
  344.0000      0.0325
  345.0000      0.0329
  346.0000      0.0327
  347.0000      0.0323
  348.0000      0.0320
  349.0000      0.0319
  350.0000      0.0321
  351.0000      0.0318
  352.0000      0.0313
  353.0000      0.0308
  354.0000      0.0311
  355.0000      0.0308
  356.0000      0.0305
  357.0000      0.0311
  358.0000      0.0307
  359.0000      0.0311
  360.0000      0.0328
  361.0000      0.0297
  362.0000      0.0316
  363.0000      0.0307
  364.0000      0.0296
  365.0000      0.0308
  366.0000      0.0289
  367.0000      0.0290
  368.0000      0.0292
  369.0000      0.0297
  370.0000      0.0277
  371.0000      0.0288
  372.0000      0.0290
  373.0000      0.0284
  374.0000      0.0278
  375.0000      0.0273
  376.0000      0.0275
  377.0000      0.0279
  378.0000      0.0276
  379.0000      0.0268
  380.0000      0.0276
  381.0000      0.0263
  382.0000      0.0270
  383.0000      0.0268
  384.0000      0.0266
  385.0000      0.0265
  386.0000      0.0269
  387.0000      0.0256
  388.0000      0.0252
  389.0000      0.0254
  390.0000      0.0254
  391.0000      0.0250
  392.0000      0.0251
  393.0000      0.0248
  394.0000      0.0249
  395.0000      0.0244
  396.0000      0.0243
  397.0000      0.0242
  398.0000      0.0246
  399.0000      0.0240
  400.0000      0.0236
  401.0000      0.0237
  402.0000      0.0235
  403.0000      0.0235
  404.0000      0.0233
  405.0000      0.0227
  406.0000      0.0232
  407.0000      0.0236
  408.0000      0.0227
  409.0000      0.0227
  410.0000      0.0230
  411.0000      0.0228
  412.0000      0.0226
  413.0000      0.0225
  414.0000      0.0222
  415.0000      0.0224
  416.0000      0.0221
  417.0000      0.0219
  418.0000      0.0217
  419.0000      0.0217
  420.0000      0.0215
  421.0000      0.0212
  422.0000      0.0214
  423.0000      0.0211
  424.0000      0.0211
  425.0000      0.0209
  426.0000      0.0208
  427.0000      0.0208
  428.0000      0.0207
  429.0000      0.0205
  430.0000      0.0205
  431.0000      0.0205
  432.0000      0.0204
  433.0000      0.0203
  434.0000      0.0203
  435.0000      0.0203
  436.0000      0.0203
  437.0000      0.0201
  438.0000      0.0201
  439.0000      0.0199
  440.0000      0.0198
  441.0000      0.0197
  442.0000      0.0197
  443.0000      0.0195
  444.0000      0.0193
  445.0000      0.0193
  446.0000      0.0192
  447.0000      0.0190
  448.0000      0.0190
  449.0000      0.0188
  450.0000      0.0187
  451.0000      0.0186
  452.0000      0.0186
  453.0000      0.0185
  454.0000      0.0183
  455.0000      0.0182
  456.0000      0.0182
  457.0000      0.0182
  458.0000      0.0180
  459.0000      0.0180
  460.0000      0.0179
  461.0000      0.0178
  462.0000      0.0178
  463.0000      0.0177
  464.0000      0.0177
  465.0000      0.0177
  466.0000      0.0177
  467.0000      0.0176
  468.0000      0.0176
  469.0000      0.0175
  470.0000      0.0175
  471.0000      0.0173
  472.0000      0.0173
  473.0000      0.0171
  474.0000      0.0170
  475.0000      0.0169
  476.0000      0.0167
  477.0000      0.0167
  478.0000      0.0166
  479.0000      0.0165
  480.0000      0.0165
  481.0000      0.0164
  482.0000      0.0164
  483.0000      0.0163
  484.0000      0.0162
  485.0000      0.0162
  486.0000      0.0161
  487.0000      0.0161
  488.0000      0.0160
  489.0000      0.0160
  490.0000      0.0159
  491.0000      0.0159
  492.0000      0.0157
  493.0000      0.0157
  494.0000      0.0157
  495.0000      0.0156
  496.0000      0.0155
  497.0000      0.0154
  498.0000      0.0154
  499.0000      0.0153
  500.0000      0.0152
  501.0000      0.0151
  502.0000      0.0150
  503.0000      0.0149
  504.0000      0.0149
  505.0000      0.0148
  506.0000      0.0146
  507.0000      0.0146
  508.0000      0.0144
  509.0000      0.0144
  510.0000      0.0143
  511.0000      0.0143
  512.0000      0.0142
  513.0000      0.0141
  514.0000      0.0140
  515.0000      0.0140
  516.0000      0.0138
  517.0000      0.0137
  518.0000      0.0136
  519.0000      0.0135
  520.0000      0.0135
  521.0000      0.0134
  522.0000      0.0134
  523.0000      0.0134
  524.0000      0.0134
  525.0000      0.0133
  526.0000      0.0134
  527.0000      0.0134
  528.0000      0.0133
  529.0000      0.0133
  530.0000      0.0133
  531.0000      0.0133
  532.0000      0.0133
  533.0000      0.0133
  534.0000      0.0132
  535.0000      0.0132
  536.0000      0.0133
  537.0000      0.0134
  538.0000      0.0133
  539.0000      0.0133
  540.0000      0.0133
  541.0000      0.0132
  542.0000      0.0131
  543.0000      0.0131
  544.0000      0.0131
  545.0000      0.0130
  546.0000      0.0130
  547.0000      0.0130
  548.0000      0.0130
  549.0000      0.0129
  550.0000      0.0128
  551.0000      0.0128
  552.0000      0.0127
  553.0000      0.0126
  554.0000      0.0126
  555.0000      0.0125
  556.0000      0.0124
  557.0000      0.0130
  558.0000      0.0129
  559.0000      0.0129
  560.0000      0.0128
  561.0000      0.0127
  562.0000      0.0127
  563.0000      0.0126
  564.0000      0.0126
  565.0000      0.0126
  566.0000      0.0126
  567.0000      0.0125
  568.0000      0.0125
  569.0000      0.0124
  570.0000      0.0124
  571.0000      0.0124
  572.0000      0.0123
  573.0000      0.0122
  574.0000      0.0121
  575.0000      0.0121
  576.0000      0.0121
  577.0000      0.0120
  578.0000      0.0121
  579.0000      0.0121
  580.0000      0.0121
  581.0000      0.0121
  582.0000      0.0121
  583.0000      0.0121
  584.0000      0.0121
  585.0000      0.0122
  586.0000      0.0122
  587.0000      0.0121
  588.0000      0.0121
  589.0000      0.0121
  590.0000      0.0120
  591.0000      0.0120
  592.0000      0.0119
  593.0000      0.0118
  594.0000      0.0117
  595.0000      0.0117
  596.0000      0.0117
  597.0000      0.0117
  598.0000      0.0118
  599.0000      0.0118
  600.0000      0.0118
  601.0000      0.0117
  602.0000      0.0117
  603.0000      0.0118
  604.0000      0.0118
  605.0000      0.0117
  606.0000      0.0117
  607.0000      0.0117
  608.0000      0.0117
  609.0000      0.0117
  610.0000      0.0117
  611.0000      0.0117
  612.0000      0.0116
  613.0000      0.0116
  614.0000      0.0115
  615.0000      0.0115
  616.0000      0.0114
  617.0000      0.0114
  618.0000      0.0113
  619.0000      0.0113
  620.0000      0.0113
  621.0000      0.0112
  622.0000      0.0112
  623.0000      0.0111
  624.0000      0.0111
  625.0000      0.0110
  626.0000      0.0109
  627.0000      0.0109
  628.0000      0.0108
  629.0000      0.0108
  630.0000      0.0108
  631.0000      0.0107
  632.0000      0.0108
  633.0000      0.0107
  634.0000      0.0107
  635.0000      0.0107
  636.0000      0.0107
  637.0000      0.0107
  638.0000      0.0107
  639.0000      0.0106
  640.0000      0.0106
  641.0000      0.0106
  642.0000      0.0106
  643.0000      0.0106
  644.0000      0.0106
  645.0000      0.0106
  646.0000      0.0105
  647.0000      0.0105
  648.0000      0.0105
  649.0000      0.0105
  650.0000      0.0105
  651.0000      0.0104
  652.0000      0.0104
  653.0000      0.0104
  654.0000      0.0103
  655.0000      0.0103
  656.0000      0.0103
  657.0000      0.0103
  658.0000      0.0103
  659.0000      0.0102
  660.0000      0.0103
  661.0000      0.0103
  662.0000      0.0103
  663.0000      0.0103
  664.0000      0.0104
  665.0000      0.0104
  666.0000      0.0105
  667.0000      0.0104
  668.0000      0.0105
  669.0000      0.0105
  670.0000      0.0105
  671.0000      0.0105
  672.0000      0.0106
  673.0000      0.0106
  674.0000      0.0107
  675.0000      0.0107
  676.0000      0.0108
  677.0000      0.0108
  678.0000      0.0108
  679.0000      0.0108
  680.0000      0.0108
  681.0000      0.0109
  682.0000      0.0108
  683.0000      0.0108
  684.0000      0.0109
  685.0000      0.0108
  686.0000      0.0108
  687.0000      0.0107
  688.0000      0.0106
  689.0000      0.0106
  690.0000      0.0105
  691.0000      0.0104
  692.0000      0.0104
  693.0000      0.0103
  694.0000      0.0103
  695.0000      0.0102
  696.0000      0.0101
  697.0000      0.0102
  698.0000      0.0101
  699.0000      0.0100
  700.0000      0.0099
  701.0000      0.0098
  702.0000      0.0097
  703.0000      0.0097
  704.0000      0.0095
  705.0000      0.0095
  706.0000      0.0094
  707.0000      0.0094
  708.0000      0.0093
  709.0000      0.0092
  710.0000      0.0092
  711.0000      0.0091
  712.0000      0.0091
  713.0000      0.0090
  714.0000      0.0090
  715.0000      0.0090
  716.0000      0.0090
  717.0000      0.0090
  718.0000      0.0090
  719.0000      0.0089
  720.0000      0.0089
  721.0000      0.0089
  722.0000      0.0089
  723.0000      0.0089
  724.0000      0.0090
  725.0000      0.0090
  726.0000      0.0089
  727.0000      0.0089
  728.0000      0.0089
  729.0000      0.0088
  730.0000      0.0088
  731.0000      0.0088
  732.0000      0.0087
  733.0000      0.0087
  734.0000      0.0086
  735.0000      0.0086
  736.0000      0.0084
  737.0000      0.0084
  738.0000      0.0084
  739.0000      0.0083
  740.0000      0.0083
  741.0000      0.0083
  742.0000      0.0083
  743.0000      0.0082
  744.0000      0.0082
  745.0000      0.0082
  746.0000      0.0082
  747.0000      0.0082
  748.0000      0.0082
  749.0000      0.0081
  750.0000      0.0081
  751.0000      0.0081
  752.0000      0.0080
  753.0000      0.0080
  754.0000      0.0080
  755.0000      0.0079
  756.0000      0.0080
  757.0000      0.0080
  758.0000      0.0079
  759.0000      0.0080
  760.0000      0.0079
  761.0000      0.0079
  762.0000      0.0080
  763.0000      0.0080
  764.0000      0.0080
  765.0000      0.0080
  766.0000      0.0080
  767.0000      0.0081
  768.0000      0.0081
  769.0000      0.0081
  770.0000      0.0081
  771.0000      0.0081
  772.0000      0.0081
  773.0000      0.0081
  774.0000      0.0081
  775.0000      0.0081
  776.0000      0.0081
  777.0000      0.0081
  778.0000      0.0081
  779.0000      0.0081
  780.0000      0.0081
  781.0000      0.0081
  782.0000      0.0081
  783.0000      0.0081
  784.0000      0.0081
  785.0000      0.0082
  786.0000      0.0081
  787.0000      0.0082
  788.0000      0.0082
  789.0000      0.0081
  790.0000      0.0081
  791.0000      0.0081
  792.0000      0.0081
  793.0000      0.0081
  794.0000      0.0081
  795.0000      0.0081
  796.0000      0.0081
  797.0000      0.0081
  798.0000      0.0080
  799.0000      0.0080
  800.0000      0.0079
