Start Wavelength:    200.0000
End Wavelength:    800.0000
Read Mode:  ABS
Read Average:      0.1000
Nanometer Interval:      1.0000
Time:      0.0000

  200.0000      0.4076
  201.0000      0.3665
  202.0000      0.3439
  203.0000      0.3258
  204.0000      0.3104
  205.0000      0.2967
  206.0000      0.2853
  207.0000      0.2766
  208.0000      0.2682
  209.0000      0.2587
  210.0000      0.2517
  211.0000      0.2453
  212.0000      0.2392
  213.0000      0.2330
  214.0000      0.2264
  215.0000      0.2211
  216.0000      0.2164
  217.0000      0.2108
  218.0000      0.2061
  219.0000      0.2019
  220.0000      0.1979
  221.0000      0.1932
  222.0000      0.1891
  223.0000      0.1860
  224.0000      0.1824
  225.0000      0.1787
  226.0000      0.1753
  227.0000      0.1722
  228.0000      0.1693
  229.0000      0.1660
  230.0000      0.1630
  231.0000      0.1600
  232.0000      0.1577
  233.0000      0.1546
  234.0000      0.1518
  235.0000      0.1502
  236.0000      0.1472
  237.0000      0.1451
  238.0000      0.1429
  239.0000      0.1409
  240.0000      0.1392
  241.0000      0.1369
  242.0000      0.1351
  243.0000      0.1340
  244.0000      0.1326
  245.0000      0.1311
  246.0000      0.1294
  247.0000      0.1285
  248.0000      0.1276
  249.0000      0.1260
  250.0000      0.1248
  251.0000      0.1238
  252.0000      0.1230
  253.0000      0.1218
  254.0000      0.1207
  255.0000      0.1199
  256.0000      0.1191
  257.0000      0.1185
  258.0000      0.1172
  259.0000      0.1166
  260.0000      0.1152
  261.0000      0.1144
  262.0000      0.1130
  263.0000      0.1120
  264.0000      0.1108
  265.0000      0.1100
  266.0000      0.1080
  267.0000      0.1069
  268.0000      0.1054
  269.0000      0.1048
  270.0000      0.1030
  271.0000      0.1009
  272.0000      0.1001
  273.0000      0.0988
  274.0000      0.0963
  275.0000      0.0954
  276.0000      0.0938
  277.0000      0.0926
  278.0000      0.0906
  279.0000      0.0887
  280.0000      0.0872
  281.0000      0.0862
  282.0000      0.0843
  283.0000      0.0825
  284.0000      0.0810
  285.0000      0.0796
  286.0000      0.0777
  287.0000      0.0765
  288.0000      0.0749
  289.0000      0.0728
  290.0000      0.0715
  291.0000      0.0700
  292.0000      0.0679
  293.0000      0.0672
  294.0000      0.0650
  295.0000      0.0634
  296.0000      0.0623
  297.0000      0.0612
  298.0000      0.0594
  299.0000      0.0586
  300.0000      0.0575
  301.0000      0.0561
  302.0000      0.0544
  303.0000      0.0538
  304.0000      0.0529
  305.0000      0.0517
  306.0000      0.0501
  307.0000      0.0487
  308.0000      0.0484
  309.0000      0.0473
  310.0000      0.0459
  311.0000      0.0455
  312.0000      0.0443
  313.0000      0.0439
  314.0000      0.0433
  315.0000      0.0419
  316.0000      0.0415
  317.0000      0.0413
  318.0000      0.0397
  319.0000      0.0393
  320.0000      0.0389
  321.0000      0.0385
  322.0000      0.0357
  323.0000      0.0350
  324.0000      0.0344
  325.0000      0.0335
  326.0000      0.0330
  327.0000      0.0323
  328.0000      0.0317
  329.0000      0.0309
  330.0000      0.0306
  331.0000      0.0308
  332.0000      0.0299
  333.0000      0.0291
  334.0000      0.0291
  335.0000      0.0285
  336.0000      0.0281
  337.0000      0.0272
  338.0000      0.0272
  339.0000      0.0268
  340.0000      0.0263
  341.0000      0.0252
  342.0000      0.0255
  343.0000      0.0252
  344.0000      0.0245
  345.0000      0.0240
  346.0000      0.0239
  347.0000      0.0233
  348.0000      0.0233
  349.0000      0.0227
  350.0000      0.0225
  351.0000      0.0219
  352.0000      0.0212
  353.0000      0.0207
  354.0000      0.0211
  355.0000      0.0206
  356.0000      0.0203
  357.0000      0.0201
  358.0000      0.0208
  359.0000      0.0201
  360.0000      0.0184
  361.0000      0.0171
  362.0000      0.0195
  363.0000      0.0172
  364.0000      0.0164
  365.0000      0.0175
  366.0000      0.0184
  367.0000      0.0166
  368.0000      0.0162
  369.0000      0.0170
  370.0000      0.0161
  371.0000      0.0158
  372.0000      0.0150
  373.0000      0.0155
  374.0000      0.0156
  375.0000      0.0136
  376.0000      0.0142
  377.0000      0.0148
  378.0000      0.0144
  379.0000      0.0132
  380.0000      0.0138
  381.0000      0.0134
  382.0000      0.0135
  383.0000      0.0127
  384.0000      0.0126
  385.0000      0.0122
  386.0000      0.0130
  387.0000      0.0118
  388.0000      0.0107
  389.0000      0.0115
  390.0000      0.0110
  391.0000      0.0106
  392.0000      0.0110
  393.0000      0.0105
  394.0000      0.0104
  395.0000      0.0097
  396.0000      0.0099
  397.0000      0.0097
  398.0000      0.0099
  399.0000      0.0096
  400.0000      0.0092
  401.0000      0.0088
  402.0000      0.0085
  403.0000      0.0083
  404.0000      0.0086
  405.0000      0.0079
  406.0000      0.0080
  407.0000      0.0085
  408.0000      0.0079
  409.0000      0.0078
  410.0000      0.0074
  411.0000      0.0076
  412.0000      0.0076
  413.0000      0.0072
  414.0000      0.0069
  415.0000      0.0068
  416.0000      0.0069
  417.0000      0.0068
  418.0000      0.0065
  419.0000      0.0065
  420.0000      0.0064
  421.0000      0.0063
  422.0000      0.0063
  423.0000      0.0061
  424.0000      0.0059
  425.0000      0.0058
  426.0000      0.0057
  427.0000      0.0057
  428.0000      0.0055
  429.0000      0.0055
  430.0000      0.0055
  431.0000      0.0053
  432.0000      0.0052
  433.0000      0.0051
  434.0000      0.0051
  435.0000      0.0049
  436.0000      0.0049
  437.0000      0.0048
  438.0000      0.0047
  439.0000      0.0046
  440.0000      0.0045
  441.0000      0.0043
  442.0000      0.0043
  443.0000      0.0042
  444.0000      0.0040
  445.0000      0.0040
  446.0000      0.0039
  447.0000      0.0038
  448.0000      0.0038
  449.0000      0.0037
  450.0000      0.0036
  451.0000      0.0035
  452.0000      0.0034
  453.0000      0.0034
  454.0000      0.0034
  455.0000      0.0032
  456.0000      0.0032
  457.0000      0.0032
  458.0000      0.0031
  459.0000      0.0031
  460.0000      0.0031
  461.0000      0.0030
  462.0000      0.0031
  463.0000      0.0030
  464.0000      0.0031
  465.0000      0.0031
  466.0000      0.0031
  467.0000      0.0030
  468.0000      0.0030
  469.0000      0.0030
  470.0000      0.0030
  471.0000      0.0029
  472.0000      0.0029
  473.0000      0.0028
  474.0000      0.0027
  475.0000      0.0027
  476.0000      0.0027
  477.0000      0.0026
  478.0000      0.0025
  479.0000      0.0025
  480.0000      0.0025
  481.0000      0.0024
  482.0000      0.0024
  483.0000      0.0023
  484.0000      0.0022
  485.0000      0.0021
  486.0000      0.0021
  487.0000      0.0021
  488.0000      0.0021
  489.0000      0.0021
  490.0000      0.0021
  491.0000      0.0020
  492.0000      0.0020
  493.0000      0.0019
  494.0000      0.0019
  495.0000      0.0019
  496.0000      0.0018
  497.0000      0.0018
  498.0000      0.0017
  499.0000      0.0017
  500.0000      0.0017
  501.0000      0.0017
  502.0000      0.0017
  503.0000      0.0017
  504.0000      0.0016
  505.0000      0.0017
  506.0000      0.0016
  507.0000      0.0016
  508.0000      0.0016
  509.0000      0.0016
  510.0000      0.0016
  511.0000      0.0016
  512.0000      0.0016
  513.0000      0.0016
  514.0000      0.0015
  515.0000      0.0016
  516.0000      0.0015
  517.0000      0.0015
  518.0000      0.0015
  519.0000      0.0014
  520.0000      0.0014
  521.0000      0.0014
  522.0000      0.0014
  523.0000      0.0014
  524.0000      0.0014
  525.0000      0.0013
  526.0000      0.0013
  527.0000      0.0013
  528.0000      0.0013
  529.0000      0.0013
  530.0000      0.0012
  531.0000      0.0012
  532.0000      0.0012
  533.0000      0.0012
  534.0000      0.0011
  535.0000      0.0011
  536.0000      0.0011
  537.0000      0.0011
  538.0000      0.0010
  539.0000      0.0010
  540.0000      0.0010
  541.0000      0.0010
  542.0000      0.0009
  543.0000      0.0009
  544.0000      0.0009
  545.0000      0.0009
  546.0000      0.0009
  547.0000      0.0008
  548.0000      0.0008
  549.0000      0.0008
  550.0000      0.0008
  551.0000      0.0008
  552.0000      0.0008
  553.0000      0.0008
  554.0000      0.0008
  555.0000      0.0008
  556.0000      0.0007
  557.0000      0.0009
  558.0000      0.0009
  559.0000      0.0008
  560.0000      0.0008
  561.0000      0.0007
  562.0000      0.0007
  563.0000      0.0006
  564.0000      0.0006
  565.0000      0.0006
  566.0000      0.0005
  567.0000      0.0005
  568.0000      0.0005
  569.0000      0.0005
  570.0000      0.0005
  571.0000      0.0005
  572.0000      0.0005
  573.0000      0.0005
  574.0000      0.0005
  575.0000      0.0005
  576.0000      0.0005
  577.0000      0.0005
  578.0000      0.0005
  579.0000      0.0005
  580.0000      0.0005
  581.0000      0.0005
  582.0000      0.0005
  583.0000      0.0005
  584.0000      0.0005
  585.0000      0.0005
  586.0000      0.0005
  587.0000      0.0005
  588.0000      0.0005
  589.0000      0.0005
  590.0000      0.0005
  591.0000      0.0005
  592.0000      0.0005
  593.0000      0.0005
  594.0000      0.0004
  595.0000      0.0004
  596.0000      0.0004
  597.0000      0.0004
  598.0000      0.0004
  599.0000      0.0004
  600.0000      0.0004
  601.0000      0.0004
  602.0000      0.0004
  603.0000      0.0004
  604.0000      0.0004
  605.0000      0.0004
  606.0000      0.0004
  607.0000      0.0004
  608.0000      0.0004
  609.0000      0.0004
  610.0000      0.0004
  611.0000      0.0004
  612.0000      0.0003
  613.0000      0.0004
  614.0000      0.0003
  615.0000      0.0003
  616.0000      0.0003
  617.0000      0.0003
  618.0000      0.0003
  619.0000      0.0003
  620.0000      0.0003
  621.0000      0.0003
  622.0000      0.0003
  623.0000      0.0003
  624.0000      0.0003
  625.0000      0.0003
  626.0000      0.0003
  627.0000      0.0003
  628.0000      0.0003
  629.0000      0.0004
  630.0000      0.0004
  631.0000      0.0004
  632.0000      0.0003
  633.0000      0.0004
  634.0000      0.0004
  635.0000      0.0003
  636.0000      0.0003
  637.0000      0.0003
  638.0000      0.0003
  639.0000      0.0003
  640.0000      0.0003
  641.0000      0.0003
  642.0000      0.0003
  643.0000      0.0002
  644.0000      0.0002
  645.0000      0.0002
  646.0000      0.0002
  647.0000      0.0002
  648.0000      0.0002
  649.0000      0.0002
  650.0000      0.0002
  651.0000      0.0002
  652.0000      0.0002
  653.0000      0.0002
  654.0000      0.0002
  655.0000      0.0002
  656.0000      0.0002
  657.0000      0.0002
  658.0000      0.0002
  659.0000      0.0002
  660.0000      0.0002
  661.0000      0.0002
  662.0000      0.0002
  663.0000      0.0002
  664.0000      0.0002
  665.0000      0.0002
  666.0000      0.0002
  667.0000      0.0002
  668.0000      0.0002
  669.0000      0.0002
  670.0000      0.0002
  671.0000      0.0002
  672.0000      0.0002
  673.0000      0.0003
  674.0000      0.0003
  675.0000      0.0003
  676.0000      0.0003
  677.0000      0.0003
  678.0000      0.0003
  679.0000      0.0003
  680.0000      0.0003
  681.0000      0.0003
  682.0000      0.0003
  683.0000      0.0003
  684.0000      0.0003
  685.0000      0.0003
  686.0000      0.0003
  687.0000      0.0003
  688.0000      0.0003
  689.0000      0.0003
  690.0000      0.0003
  691.0000      0.0003
  692.0000      0.0003
  693.0000      0.0003
  694.0000      0.0003
  695.0000      0.0003
  696.0000      0.0002
  697.0000      0.0002
  698.0000      0.0002
  699.0000      0.0002
  700.0000      0.0002
  701.0000      0.0002
  702.0000      0.0002
  703.0000      0.0002
  704.0000      0.0002
  705.0000      0.0002
  706.0000      0.0002
  707.0000      0.0001
  708.0000      0.0001
  709.0000      0.0001
  710.0000      0.0001
  711.0000      0.0001
  712.0000      0.0001
  713.0000      0.0001
  714.0000      0.0000
  715.0000      0.0001
  716.0000      0.0001
  717.0000      0.0001
  718.0000      0.0001
  719.0000      0.0000
  720.0000     -0.0000
  721.0000     -0.0001
  722.0000     -0.0001
  723.0000     -0.0001
  724.0000     -0.0001
  725.0000     -0.0001
  726.0000     -0.0001
  727.0000     -0.0001
  728.0000     -0.0001
  729.0000     -0.0002
  730.0000     -0.0002
  731.0000     -0.0002
  732.0000     -0.0003
  733.0000     -0.0003
  734.0000     -0.0003
  735.0000     -0.0003
  736.0000     -0.0005
  737.0000     -0.0004
  738.0000     -0.0005
  739.0000     -0.0005
  740.0000     -0.0005
  741.0000     -0.0005
  742.0000     -0.0005
  743.0000     -0.0005
  744.0000     -0.0004
  745.0000     -0.0005
  746.0000     -0.0004
  747.0000     -0.0004
  748.0000     -0.0004
  749.0000     -0.0004
  750.0000     -0.0003
  751.0000     -0.0003
  752.0000     -0.0003
  753.0000     -0.0003
  754.0000     -0.0002
  755.0000     -0.0002
  756.0000     -0.0002
  757.0000     -0.0002
  758.0000     -0.0002
  759.0000     -0.0001
  760.0000     -0.0001
  761.0000     -0.0002
  762.0000     -0.0001
  763.0000     -0.0001
  764.0000     -0.0000
  765.0000     -0.0000
  766.0000     -0.0000
  767.0000      0.0000
  768.0000      0.0000
  769.0000     -0.0000
  770.0000      0.0000
  771.0000      0.0001
  772.0000      0.0001
  773.0000      0.0001
  774.0000      0.0001
  775.0000      0.0001
  776.0000      0.0001
  777.0000      0.0001
  778.0000      0.0002
  779.0000      0.0002
  780.0000      0.0002
  781.0000      0.0001
  782.0000      0.0002
  783.0000      0.0002
  784.0000      0.0002
  785.0000      0.0002
  786.0000      0.0003
  787.0000      0.0003
  788.0000      0.0002
  789.0000      0.0003
  790.0000      0.0002
  791.0000      0.0002
  792.0000      0.0002
  793.0000      0.0002
  794.0000      0.0003
  795.0000      0.0002
  796.0000      0.0002
  797.0000      0.0002
  798.0000      0.0002
  799.0000      0.0002
  800.0000      0.0001
