Start Wavelength:    200.0000
End Wavelength:    800.0000
Read Mode:  ABS
Read Average:      0.1000
Nanometer Interval:      1.0000
Time:      0.0000

  200.0000      0.4661
  201.0000      0.4213
  202.0000      0.3994
  203.0000      0.3774
  204.0000      0.3605
  205.0000      0.3465
  206.0000      0.3336
  207.0000      0.3228
  208.0000      0.3131
  209.0000      0.3034
  210.0000      0.2958
  211.0000      0.2869
  212.0000      0.2806
  213.0000      0.2736
  214.0000      0.2668
  215.0000      0.2604
  216.0000      0.2553
  217.0000      0.2490
  218.0000      0.2443
  219.0000      0.2393
  220.0000      0.2350
  221.0000      0.2296
  222.0000      0.2258
  223.0000      0.2213
  224.0000      0.2168
  225.0000      0.2136
  226.0000      0.2098
  227.0000      0.2060
  228.0000      0.2021
  229.0000      0.1985
  230.0000      0.1956
  231.0000      0.1922
  232.0000      0.1889
  233.0000      0.1854
  234.0000      0.1826
  235.0000      0.1800
  236.0000      0.1770
  237.0000      0.1743
  238.0000      0.1718
  239.0000      0.1698
  240.0000      0.1672
  241.0000      0.1648
  242.0000      0.1633
  243.0000      0.1618
  244.0000      0.1605
  245.0000      0.1586
  246.0000      0.1576
  247.0000      0.1563
  248.0000      0.1552
  249.0000      0.1541
  250.0000      0.1529
  251.0000      0.1523
  252.0000      0.1517
  253.0000      0.1499
  254.0000      0.1495
  255.0000      0.1485
  256.0000      0.1474
  257.0000      0.1466
  258.0000      0.1457
  259.0000      0.1453
  260.0000      0.1439
  261.0000      0.1433
  262.0000      0.1421
  263.0000      0.1411
  264.0000      0.1402
  265.0000      0.1383
  266.0000      0.1371
  267.0000      0.1363
  268.0000      0.1344
  269.0000      0.1335
  270.0000      0.1318
  271.0000      0.1301
  272.0000      0.1291
  273.0000      0.1282
  274.0000      0.1256
  275.0000      0.1247
  276.0000      0.1233
  277.0000      0.1217
  278.0000      0.1198
  279.0000      0.1183
  280.0000      0.1160
  281.0000      0.1146
  282.0000      0.1126
  283.0000      0.1101
  284.0000      0.1092
  285.0000      0.1080
  286.0000      0.1052
  287.0000      0.1036
  288.0000      0.1022
  289.0000      0.1001
  290.0000      0.0986
  291.0000      0.0963
  292.0000      0.0948
  293.0000      0.0932
  294.0000      0.0921
  295.0000      0.0897
  296.0000      0.0882
  297.0000      0.0871
  298.0000      0.0857
  299.0000      0.0838
  300.0000      0.0825
  301.0000      0.0812
  302.0000      0.0802
  303.0000      0.0786
  304.0000      0.0774
  305.0000      0.0765
  306.0000      0.0754
  307.0000      0.0742
  308.0000      0.0730
  309.0000      0.0719
  310.0000      0.0714
  311.0000      0.0706
  312.0000      0.0687
  313.0000      0.0687
  314.0000      0.0686
  315.0000      0.0675
  316.0000      0.0660
  317.0000      0.0659
  318.0000      0.0650
  319.0000      0.0645
  320.0000      0.0635
  321.0000      0.0635
  322.0000      0.0605
  323.0000      0.0598
  324.0000      0.0590
  325.0000      0.0585
  326.0000      0.0574
  327.0000      0.0564
  328.0000      0.0565
  329.0000      0.0561
  330.0000      0.0550
  331.0000      0.0548
  332.0000      0.0544
  333.0000      0.0536
  334.0000      0.0536
  335.0000      0.0522
  336.0000      0.0522
  337.0000      0.0515
  338.0000      0.0513
  339.0000      0.0506
  340.0000      0.0506
  341.0000      0.0495
  342.0000      0.0497
  343.0000      0.0490
  344.0000      0.0479
  345.0000      0.0482
  346.0000      0.0479
  347.0000      0.0469
  348.0000      0.0468
  349.0000      0.0464
  350.0000      0.0462
  351.0000      0.0460
  352.0000      0.0448
  353.0000      0.0445
  354.0000      0.0447
  355.0000      0.0441
  356.0000      0.0435
  357.0000      0.0442
  358.0000      0.0435
  359.0000      0.0434
  360.0000      0.0420
  361.0000      0.0416
  362.0000      0.0422
  363.0000      0.0410
  364.0000      0.0388
  365.0000      0.0406
  366.0000      0.0415
  367.0000      0.0407
  368.0000      0.0404
  369.0000      0.0387
  370.0000      0.0387
  371.0000      0.0387
  372.0000      0.0376
  373.0000      0.0373
  374.0000      0.0387
  375.0000      0.0379
  376.0000      0.0384
  377.0000      0.0379
  378.0000      0.0362
  379.0000      0.0374
  380.0000      0.0377
  381.0000      0.0361
  382.0000      0.0357
  383.0000      0.0362
  384.0000      0.0359
  385.0000      0.0354
  386.0000      0.0349
  387.0000      0.0355
  388.0000      0.0339
  389.0000      0.0346
  390.0000      0.0344
  391.0000      0.0342
  392.0000      0.0344
  393.0000      0.0342
  394.0000      0.0336
  395.0000      0.0337
  396.0000      0.0334
  397.0000      0.0332
  398.0000      0.0334
  399.0000      0.0328
  400.0000      0.0330
  401.0000      0.0332
  402.0000      0.0322
  403.0000      0.0323
  404.0000      0.0323
  405.0000      0.0317
  406.0000      0.0323
  407.0000      0.0323
  408.0000      0.0317
  409.0000      0.0316
  410.0000      0.0316
  411.0000      0.0310
  412.0000      0.0313
  413.0000      0.0312
  414.0000      0.0310
  415.0000      0.0308
  416.0000      0.0308
  417.0000      0.0308
  418.0000      0.0307
  419.0000      0.0306
  420.0000      0.0303
  421.0000      0.0303
  422.0000      0.0304
  423.0000      0.0302
  424.0000      0.0301
  425.0000      0.0301
  426.0000      0.0300
  427.0000      0.0299
  428.0000      0.0296
  429.0000      0.0296
  430.0000      0.0295
  431.0000      0.0294
  432.0000      0.0293
  433.0000      0.0292
  434.0000      0.0291
  435.0000      0.0290
  436.0000      0.0290
  437.0000      0.0287
  438.0000      0.0285
  439.0000      0.0283
  440.0000      0.0282
  441.0000      0.0278
  442.0000      0.0277
  443.0000      0.0275
  444.0000      0.0272
  445.0000      0.0270
  446.0000      0.0267
  447.0000      0.0265
  448.0000      0.0263
  449.0000      0.0260
  450.0000      0.0258
  451.0000      0.0256
  452.0000      0.0254
  453.0000      0.0252
  454.0000      0.0250
  455.0000      0.0248
  456.0000      0.0247
  457.0000      0.0244
  458.0000      0.0243
  459.0000      0.0242
  460.0000      0.0240
  461.0000      0.0238
  462.0000      0.0238
  463.0000      0.0238
  464.0000      0.0236
  465.0000      0.0236
  466.0000      0.0236
  467.0000      0.0235
  468.0000      0.0235
  469.0000      0.0234
  470.0000      0.0232
  471.0000      0.0230
  472.0000      0.0228
  473.0000      0.0227
  474.0000      0.0226
  475.0000      0.0224
  476.0000      0.0224
  477.0000      0.0223
  478.0000      0.0222
  479.0000      0.0220
  480.0000      0.0219
  481.0000      0.0218
  482.0000      0.0217
  483.0000      0.0216
  484.0000      0.0215
  485.0000      0.0214
  486.0000      0.0213
  487.0000      0.0213
  488.0000      0.0213
  489.0000      0.0213
  490.0000      0.0213
  491.0000      0.0213
  492.0000      0.0213
  493.0000      0.0212
  494.0000      0.0212
  495.0000      0.0212
  496.0000      0.0212
  497.0000      0.0212
  498.0000      0.0212
  499.0000      0.0211
  500.0000      0.0210
  501.0000      0.0209
  502.0000      0.0208
  503.0000      0.0207
  504.0000      0.0205
  505.0000      0.0204
  506.0000      0.0202
  507.0000      0.0201
  508.0000      0.0199
  509.0000      0.0198
  510.0000      0.0196
  511.0000      0.0196
  512.0000      0.0195
  513.0000      0.0194
  514.0000      0.0194
  515.0000      0.0194
  516.0000      0.0193
  517.0000      0.0193
  518.0000      0.0192
  519.0000      0.0192
  520.0000      0.0192
  521.0000      0.0191
  522.0000      0.0190
  523.0000      0.0190
  524.0000      0.0189
  525.0000      0.0188
  526.0000      0.0188
  527.0000      0.0187
  528.0000      0.0187
  529.0000      0.0187
  530.0000      0.0186
  531.0000      0.0186
  532.0000      0.0185
  533.0000      0.0185
  534.0000      0.0184
  535.0000      0.0183
  536.0000      0.0182
  537.0000      0.0182
  538.0000      0.0181
  539.0000      0.0180
  540.0000      0.0178
  541.0000      0.0177
  542.0000      0.0176
  543.0000      0.0174
  544.0000      0.0173
  545.0000      0.0172
  546.0000      0.0172
  547.0000      0.0170
  548.0000      0.0170
  549.0000      0.0169
  550.0000      0.0168
  551.0000      0.0168
  552.0000      0.0168
  553.0000      0.0167
  554.0000      0.0167
  555.0000      0.0167
  556.0000      0.0166
  557.0000      0.0175
  558.0000      0.0175
  559.0000      0.0175
  560.0000      0.0175
  561.0000      0.0174
  562.0000      0.0174
  563.0000      0.0174
  564.0000      0.0174
  565.0000      0.0173
  566.0000      0.0173
  567.0000      0.0172
  568.0000      0.0172
  569.0000      0.0171
  570.0000      0.0170
  571.0000      0.0170
  572.0000      0.0169
  573.0000      0.0169
  574.0000      0.0169
  575.0000      0.0169
  576.0000      0.0169
  577.0000      0.0168
  578.0000      0.0168
  579.0000      0.0168
  580.0000      0.0168
  581.0000      0.0168
  582.0000      0.0167
  583.0000      0.0166
  584.0000      0.0166
  585.0000      0.0165
  586.0000      0.0165
  587.0000      0.0166
  588.0000      0.0166
  589.0000      0.0165
  590.0000      0.0164
  591.0000      0.0164
  592.0000      0.0163
  593.0000      0.0163
  594.0000      0.0162
  595.0000      0.0162
  596.0000      0.0161
  597.0000      0.0161
  598.0000      0.0160
  599.0000      0.0160
  600.0000      0.0158
  601.0000      0.0158
  602.0000      0.0157
  603.0000      0.0157
  604.0000      0.0156
  605.0000      0.0156
  606.0000      0.0155
  607.0000      0.0155
  608.0000      0.0154
  609.0000      0.0153
  610.0000      0.0153
  611.0000      0.0153
  612.0000      0.0152
  613.0000      0.0152
  614.0000      0.0152
  615.0000      0.0152
  616.0000      0.0151
  617.0000      0.0151
  618.0000      0.0151
  619.0000      0.0150
  620.0000      0.0150
  621.0000      0.0150
  622.0000      0.0150
  623.0000      0.0149
  624.0000      0.0149
  625.0000      0.0149
  626.0000      0.0149
  627.0000      0.0149
  628.0000      0.0149
  629.0000      0.0149
  630.0000      0.0149
  631.0000      0.0149
  632.0000      0.0149
  633.0000      0.0149
  634.0000      0.0148
  635.0000      0.0148
  636.0000      0.0148
  637.0000      0.0148
  638.0000      0.0148
  639.0000      0.0148
  640.0000      0.0148
  641.0000      0.0148
  642.0000      0.0148
  643.0000      0.0147
  644.0000      0.0147
  645.0000      0.0147
  646.0000      0.0147
  647.0000      0.0146
  648.0000      0.0146
  649.0000      0.0146
  650.0000      0.0146
  651.0000      0.0145
  652.0000      0.0145
  653.0000      0.0145
  654.0000      0.0145
  655.0000      0.0145
  656.0000      0.0145
  657.0000      0.0145
  658.0000      0.0145
  659.0000      0.0146
  660.0000      0.0146
  661.0000      0.0146
  662.0000      0.0146
  663.0000      0.0146
  664.0000      0.0146
  665.0000      0.0147
  666.0000      0.0147
  667.0000      0.0147
  668.0000      0.0147
  669.0000      0.0147
  670.0000      0.0147
  671.0000      0.0148
  672.0000      0.0147
  673.0000      0.0148
  674.0000      0.0148
  675.0000      0.0148
  676.0000      0.0148
  677.0000      0.0148
  678.0000      0.0148
  679.0000      0.0148
  680.0000      0.0148
  681.0000      0.0147
  682.0000      0.0147
  683.0000      0.0147
  684.0000      0.0146
  685.0000      0.0146
  686.0000      0.0144
  687.0000      0.0144
  688.0000      0.0143
  689.0000      0.0142
  690.0000      0.0141
  691.0000      0.0140
  692.0000      0.0140
  693.0000      0.0139
  694.0000      0.0138
  695.0000      0.0138
  696.0000      0.0137
  697.0000      0.0137
  698.0000      0.0137
  699.0000      0.0136
  700.0000      0.0135
  701.0000      0.0134
  702.0000      0.0133
  703.0000      0.0133
  704.0000      0.0132
  705.0000      0.0132
  706.0000      0.0131
  707.0000      0.0130
  708.0000      0.0131
  709.0000      0.0130
  710.0000      0.0130
  711.0000      0.0130
  712.0000      0.0130
  713.0000      0.0130
  714.0000      0.0130
  715.0000      0.0130
  716.0000      0.0130
  717.0000      0.0131
  718.0000      0.0131
  719.0000      0.0130
  720.0000      0.0130
  721.0000      0.0130
  722.0000      0.0131
  723.0000      0.0130
  724.0000      0.0131
  725.0000      0.0131
  726.0000      0.0131
  727.0000      0.0131
  728.0000      0.0130
  729.0000      0.0130
  730.0000      0.0130
  731.0000      0.0130
  732.0000      0.0129
  733.0000      0.0128
  734.0000      0.0127
  735.0000      0.0125
  736.0000      0.0117
  737.0000      0.0117
  738.0000      0.0117
  739.0000      0.0116
  740.0000      0.0116
  741.0000      0.0115
  742.0000      0.0115
  743.0000      0.0115
  744.0000      0.0115
  745.0000      0.0115
  746.0000      0.0115
  747.0000      0.0114
  748.0000      0.0114
  749.0000      0.0113
  750.0000      0.0113
  751.0000      0.0114
  752.0000      0.0113
  753.0000      0.0113
  754.0000      0.0113
  755.0000      0.0113
  756.0000      0.0113
  757.0000      0.0113
  758.0000      0.0113
  759.0000      0.0113
  760.0000      0.0113
  761.0000      0.0113
  762.0000      0.0113
  763.0000      0.0113
  764.0000      0.0113
  765.0000      0.0112
  766.0000      0.0113
  767.0000      0.0113
  768.0000      0.0113
  769.0000      0.0113
  770.0000      0.0113
  771.0000      0.0113
  772.0000      0.0113
  773.0000      0.0113
  774.0000      0.0113
  775.0000      0.0112
  776.0000      0.0112
  777.0000      0.0111
  778.0000      0.0111
  779.0000      0.0111
  780.0000      0.0110
  781.0000      0.0110
  782.0000      0.0110
  783.0000      0.0110
  784.0000      0.0110
  785.0000      0.0110
  786.0000      0.0109
  787.0000      0.0109
  788.0000      0.0109
  789.0000      0.0109
  790.0000      0.0108
  791.0000      0.0108
  792.0000      0.0109
  793.0000      0.0108
  794.0000      0.0108
  795.0000      0.0108
  796.0000      0.0108
  797.0000      0.0107
  798.0000      0.0107
  799.0000      0.0106
  800.0000      0.0106
