Start Wavelength:    200.0000
End Wavelength:    800.0000
Read Mode:  ABS
Read Average:      0.1000
Nanometer Interval:      1.0000
Time:      0.0000

  200.0000      0.6032
  201.0000      0.5577
  202.0000      0.5327
  203.0000      0.5132
  204.0000      0.4954
  205.0000      0.4802
  206.0000      0.4646
  207.0000      0.4521
  208.0000      0.4404
  209.0000      0.4272
  210.0000      0.4162
  211.0000      0.4040
  212.0000      0.3934
  213.0000      0.3808
  214.0000      0.3693
  215.0000      0.3583
  216.0000      0.3473
  217.0000      0.3362
  218.0000      0.3261
  219.0000      0.3166
  220.0000      0.3072
  221.0000      0.2972
  222.0000      0.2891
  223.0000      0.2814
  224.0000      0.2733
  225.0000      0.2658
  226.0000      0.2593
  227.0000      0.2531
  228.0000      0.2472
  229.0000      0.2408
  230.0000      0.2358
  231.0000      0.2308
  232.0000      0.2264
  233.0000      0.2218
  234.0000      0.2170
  235.0000      0.2139
  236.0000      0.2105
  237.0000      0.2072
  238.0000      0.2039
  239.0000      0.2010
  240.0000      0.1987
  241.0000      0.1961
  242.0000      0.1938
  243.0000      0.1921
  244.0000      0.1907
  245.0000      0.1893
  246.0000      0.1878
  247.0000      0.1871
  248.0000      0.1857
  249.0000      0.1846
  250.0000      0.1835
  251.0000      0.1826
  252.0000      0.1818
  253.0000      0.1806
  254.0000      0.1800
  255.0000      0.1792
  256.0000      0.1779
  257.0000      0.1771
  258.0000      0.1761
  259.0000      0.1757
  260.0000      0.1747
  261.0000      0.1735
  262.0000      0.1725
  263.0000      0.1716
  264.0000      0.1704
  265.0000      0.1693
  266.0000      0.1675
  267.0000      0.1668
  268.0000      0.1651
  269.0000      0.1644
  270.0000      0.1622
  271.0000      0.1603
  272.0000      0.1593
  273.0000      0.1576
  274.0000      0.1554
  275.0000      0.1545
  276.0000      0.1525
  277.0000      0.1514
  278.0000      0.1497
  279.0000      0.1474
  280.0000      0.1454
  281.0000      0.1443
  282.0000      0.1431
  283.0000      0.1411
  284.0000      0.1390
  285.0000      0.1377
  286.0000      0.1356
  287.0000      0.1346
  288.0000      0.1326
  289.0000      0.1300
  290.0000      0.1290
  291.0000      0.1274
  292.0000      0.1257
  293.0000      0.1235
  294.0000      0.1215
  295.0000      0.1202
  296.0000      0.1184
  297.0000      0.1168
  298.0000      0.1148
  299.0000      0.1135
  300.0000      0.1122
  301.0000      0.1109
  302.0000      0.1093
  303.0000      0.1081
  304.0000      0.1074
  305.0000      0.1060
  306.0000      0.1049
  307.0000      0.1028
  308.0000      0.1022
  309.0000      0.1011
  310.0000      0.1004
  311.0000      0.0992
  312.0000      0.0978
  313.0000      0.0972
  314.0000      0.0965
  315.0000      0.0953
  316.0000      0.0938
  317.0000      0.0934
  318.0000      0.0927
  319.0000      0.0923
  320.0000      0.0913
  321.0000      0.0903
  322.0000      0.0882
  323.0000      0.0867
  324.0000      0.0864
  325.0000      0.0854
  326.0000      0.0845
  327.0000      0.0837
  328.0000      0.0833
  329.0000      0.0826
  330.0000      0.0821
  331.0000      0.0822
  332.0000      0.0809
  333.0000      0.0808
  334.0000      0.0802
  335.0000      0.0798
  336.0000      0.0794
  337.0000      0.0783
  338.0000      0.0782
  339.0000      0.0775
  340.0000      0.0775
  341.0000      0.0762
  342.0000      0.0760
  343.0000      0.0761
  344.0000      0.0751
  345.0000      0.0747
  346.0000      0.0744
  347.0000      0.0735
  348.0000      0.0737
  349.0000      0.0733
  350.0000      0.0724
  351.0000      0.0718
  352.0000      0.0713
  353.0000      0.0711
  354.0000      0.0713
  355.0000      0.0707
  356.0000      0.0703
  357.0000      0.0703
  358.0000      0.0684
  359.0000      0.0704
  360.0000      0.0701
  361.0000      0.0677
  362.0000      0.0683
  363.0000      0.0680
  364.0000      0.0662
  365.0000      0.0680
  366.0000      0.0668
  367.0000      0.0651
  368.0000      0.0659
  369.0000      0.0662
  370.0000      0.0642
  371.0000      0.0645
  372.0000      0.0641
  373.0000      0.0637
  374.0000      0.0645
  375.0000      0.0632
  376.0000      0.0621
  377.0000      0.0635
  378.0000      0.0629
  379.0000      0.0624
  380.0000      0.0619
  381.0000      0.0605
  382.0000      0.0611
  383.0000      0.0613
  384.0000      0.0605
  385.0000      0.0594
  386.0000      0.0599
  387.0000      0.0598
  388.0000      0.0583
  389.0000      0.0589
  390.0000      0.0584
  391.0000      0.0584
  392.0000      0.0582
  393.0000      0.0576
  394.0000      0.0575
  395.0000      0.0573
  396.0000      0.0574
  397.0000      0.0569
  398.0000      0.0569
  399.0000      0.0564
  400.0000      0.0565
  401.0000      0.0563
  402.0000      0.0556
  403.0000      0.0554
  404.0000      0.0552
  405.0000      0.0548
  406.0000      0.0551
  407.0000      0.0551
  408.0000      0.0543
  409.0000      0.0543
  410.0000      0.0541
  411.0000      0.0535
  412.0000      0.0535
  413.0000      0.0535
  414.0000      0.0531
  415.0000      0.0527
  416.0000      0.0523
  417.0000      0.0521
  418.0000      0.0520
  419.0000      0.0519
  420.0000      0.0515
  421.0000      0.0514
  422.0000      0.0513
  423.0000      0.0510
  424.0000      0.0507
  425.0000      0.0504
  426.0000      0.0502
  427.0000      0.0502
  428.0000      0.0500
  429.0000      0.0497
  430.0000      0.0496
  431.0000      0.0495
  432.0000      0.0493
  433.0000      0.0490
  434.0000      0.0488
  435.0000      0.0486
  436.0000      0.0486
  437.0000      0.0483
  438.0000      0.0481
  439.0000      0.0479
  440.0000      0.0477
  441.0000      0.0474
  442.0000      0.0472
  443.0000      0.0470
  444.0000      0.0468
  445.0000      0.0466
  446.0000      0.0465
  447.0000      0.0462
  448.0000      0.0460
  449.0000      0.0458
  450.0000      0.0456
  451.0000      0.0454
  452.0000      0.0452
  453.0000      0.0451
  454.0000      0.0449
  455.0000      0.0447
  456.0000      0.0446
  457.0000      0.0445
  458.0000      0.0443
  459.0000      0.0443
  460.0000      0.0442
  461.0000      0.0441
  462.0000      0.0442
  463.0000      0.0441
  464.0000      0.0440
  465.0000      0.0440
  466.0000      0.0440
  467.0000      0.0439
  468.0000      0.0438
  469.0000      0.0437
  470.0000      0.0437
  471.0000      0.0435
  472.0000      0.0434
  473.0000      0.0432
  474.0000      0.0431
  475.0000      0.0430
  476.0000      0.0429
  477.0000      0.0428
  478.0000      0.0426
  479.0000      0.0425
  480.0000      0.0424
  481.0000      0.0423
  482.0000      0.0422
  483.0000      0.0421
  484.0000      0.0421
  485.0000      0.0421
  486.0000      0.0420
  487.0000      0.0420
  488.0000      0.0419
  489.0000      0.0417
  490.0000      0.0416
  491.0000      0.0414
  492.0000      0.0413
  493.0000      0.0412
  494.0000      0.0410
  495.0000      0.0409
  496.0000      0.0407
  497.0000      0.0405
  498.0000      0.0404
  499.0000      0.0401
  500.0000      0.0400
  501.0000      0.0397
  502.0000      0.0396
  503.0000      0.0394
  504.0000      0.0392
  505.0000      0.0391
  506.0000      0.0389
  507.0000      0.0387
  508.0000      0.0385
  509.0000      0.0383
  510.0000      0.0381
  511.0000      0.0380
  512.0000      0.0377
  513.0000      0.0375
  514.0000      0.0374
  515.0000      0.0372
  516.0000      0.0371
  517.0000      0.0369
  518.0000      0.0369
  519.0000      0.0368
  520.0000      0.0367
  521.0000      0.0367
  522.0000      0.0365
  523.0000      0.0365
  524.0000      0.0365
  525.0000      0.0364
  526.0000      0.0364
  527.0000      0.0364
  528.0000      0.0364
  529.0000      0.0363
  530.0000      0.0362
  531.0000      0.0362
  532.0000      0.0363
  533.0000      0.0362
  534.0000      0.0362
  535.0000      0.0361
  536.0000      0.0361
  537.0000      0.0361
  538.0000      0.0360
  539.0000      0.0361
  540.0000      0.0362
  541.0000      0.0363
  542.0000      0.0364
  543.0000      0.0364
  544.0000      0.0364
  545.0000      0.0364
  546.0000      0.0363
  547.0000      0.0362
  548.0000      0.0362
  549.0000      0.0362
  550.0000      0.0361
  551.0000      0.0360
  552.0000      0.0359
  553.0000      0.0358
  554.0000      0.0357
  555.0000      0.0356
  556.0000      0.0356
  557.0000      0.0361
  558.0000      0.0359
  559.0000      0.0357
  560.0000      0.0356
  561.0000      0.0353
  562.0000      0.0352
  563.0000      0.0350
  564.0000      0.0347
  565.0000      0.0346
  566.0000      0.0343
  567.0000      0.0340
  568.0000      0.0338
  569.0000      0.0336
  570.0000      0.0334
  571.0000      0.0333
  572.0000      0.0331
  573.0000      0.0330
  574.0000      0.0330
  575.0000      0.0328
  576.0000      0.0327
  577.0000      0.0325
  578.0000      0.0324
  579.0000      0.0323
  580.0000      0.0322
  581.0000      0.0322
  582.0000      0.0321
  583.0000      0.0321
  584.0000      0.0321
  585.0000      0.0320
  586.0000      0.0319
  587.0000      0.0319
  588.0000      0.0318
  589.0000      0.0318
  590.0000      0.0318
  591.0000      0.0318
  592.0000      0.0318
  593.0000      0.0317
  594.0000      0.0317
  595.0000      0.0317
  596.0000      0.0317
  597.0000      0.0316
  598.0000      0.0316
  599.0000      0.0317
  600.0000      0.0317
  601.0000      0.0317
  602.0000      0.0317
  603.0000      0.0318
  604.0000      0.0317
  605.0000      0.0317
  606.0000      0.0317
  607.0000      0.0317
  608.0000      0.0316
  609.0000      0.0315
  610.0000      0.0315
  611.0000      0.0315
  612.0000      0.0314
  613.0000      0.0314
  614.0000      0.0315
  615.0000      0.0313
  616.0000      0.0313
  617.0000      0.0313
  618.0000      0.0312
  619.0000      0.0311
  620.0000      0.0310
  621.0000      0.0310
  622.0000      0.0309
  623.0000      0.0307
  624.0000      0.0306
  625.0000      0.0306
  626.0000      0.0306
  627.0000      0.0306
  628.0000      0.0305
  629.0000      0.0305
  630.0000      0.0304
  631.0000      0.0303
  632.0000      0.0302
  633.0000      0.0301
  634.0000      0.0300
  635.0000      0.0299
  636.0000      0.0298
  637.0000      0.0298
  638.0000      0.0297
  639.0000      0.0296
  640.0000      0.0295
  641.0000      0.0295
  642.0000      0.0294
  643.0000      0.0294
  644.0000      0.0293
  645.0000      0.0293
  646.0000      0.0293
  647.0000      0.0292
  648.0000      0.0292
  649.0000      0.0291
  650.0000      0.0291
  651.0000      0.0291
  652.0000      0.0290
  653.0000      0.0289
  654.0000      0.0288
  655.0000      0.0287
  656.0000      0.0287
  657.0000      0.0286
  658.0000      0.0287
  659.0000      0.0287
  660.0000      0.0287
  661.0000      0.0288
  662.0000      0.0288
  663.0000      0.0288
  664.0000      0.0289
  665.0000      0.0290
  666.0000      0.0290
  667.0000      0.0291
  668.0000      0.0291
  669.0000      0.0292
  670.0000      0.0292
  671.0000      0.0293
  672.0000      0.0293
  673.0000      0.0295
  674.0000      0.0295
  675.0000      0.0296
  676.0000      0.0296
  677.0000      0.0296
  678.0000      0.0296
  679.0000      0.0296
  680.0000      0.0297
  681.0000      0.0297
  682.0000      0.0296
  683.0000      0.0296
  684.0000      0.0295
  685.0000      0.0295
  686.0000      0.0294
  687.0000      0.0294
  688.0000      0.0293
  689.0000      0.0293
  690.0000      0.0291
  691.0000      0.0291
  692.0000      0.0290
  693.0000      0.0289
  694.0000      0.0288
  695.0000      0.0288
  696.0000      0.0286
  697.0000      0.0286
  698.0000      0.0284
  699.0000      0.0284
  700.0000      0.0284
  701.0000      0.0282
  702.0000      0.0281
  703.0000      0.0280
  704.0000      0.0278
  705.0000      0.0278
  706.0000      0.0277
  707.0000      0.0276
  708.0000      0.0275
  709.0000      0.0274
  710.0000      0.0273
  711.0000      0.0273
  712.0000      0.0272
  713.0000      0.0271
  714.0000      0.0270
  715.0000      0.0270
  716.0000      0.0270
  717.0000      0.0269
  718.0000      0.0268
  719.0000      0.0268
  720.0000      0.0268
  721.0000      0.0267
  722.0000      0.0267
  723.0000      0.0266
  724.0000      0.0266
  725.0000      0.0265
  726.0000      0.0265
  727.0000      0.0263
  728.0000      0.0262
  729.0000      0.0261
  730.0000      0.0260
  731.0000      0.0259
  732.0000      0.0258
  733.0000      0.0257
  734.0000      0.0256
  735.0000      0.0255
  736.0000      0.0252
  737.0000      0.0252
  738.0000      0.0250
  739.0000      0.0250
  740.0000      0.0250
  741.0000      0.0249
  742.0000      0.0248
  743.0000      0.0249
  744.0000      0.0249
  745.0000      0.0249
  746.0000      0.0249
  747.0000      0.0249
  748.0000      0.0249
  749.0000      0.0249
  750.0000      0.0249
  751.0000      0.0250
  752.0000      0.0250
  753.0000      0.0250
  754.0000      0.0251
  755.0000      0.0250
  756.0000      0.0251
  757.0000      0.0251
  758.0000      0.0251
  759.0000      0.0252
  760.0000      0.0252
  761.0000      0.0251
  762.0000      0.0252
  763.0000      0.0252
  764.0000      0.0252
  765.0000      0.0251
  766.0000      0.0252
  767.0000      0.0252
  768.0000      0.0252
  769.0000      0.0252
  770.0000      0.0252
  771.0000      0.0252
  772.0000      0.0252
  773.0000      0.0252
  774.0000      0.0252
  775.0000      0.0252
  776.0000      0.0251
  777.0000      0.0251
  778.0000      0.0250
  779.0000      0.0250
  780.0000      0.0249
  781.0000      0.0249
  782.0000      0.0248
  783.0000      0.0248
  784.0000      0.0248
  785.0000      0.0248
  786.0000      0.0247
  787.0000      0.0247
  788.0000      0.0247
  789.0000      0.0247
  790.0000      0.0246
  791.0000      0.0246
  792.0000      0.0246
  793.0000      0.0245
  794.0000      0.0246
  795.0000      0.0245
  796.0000      0.0245
  797.0000      0.0244
  798.0000      0.0243
  799.0000      0.0243
  800.0000      0.0242
