Start Wavelength:    200.0000
End Wavelength:    800.0000
Read Mode:  ABS
Read Average:      0.1000
Nanometer Interval:      1.0000
Time:      0.0000

  200.0000      0.3868
  201.0000      0.3452
  202.0000      0.3256
  203.0000      0.3084
  204.0000      0.2920
  205.0000      0.2791
  206.0000      0.2687
  207.0000      0.2597
  208.0000      0.2515
  209.0000      0.2425
  210.0000      0.2362
  211.0000      0.2297
  212.0000      0.2241
  213.0000      0.2178
  214.0000      0.2119
  215.0000      0.2065
  216.0000      0.2021
  217.0000      0.1971
  218.0000      0.1924
  219.0000      0.1884
  220.0000      0.1846
  221.0000      0.1802
  222.0000      0.1766
  223.0000      0.1732
  224.0000      0.1693
  225.0000      0.1663
  226.0000      0.1630
  227.0000      0.1596
  228.0000      0.1567
  229.0000      0.1538
  230.0000      0.1516
  231.0000      0.1485
  232.0000      0.1461
  233.0000      0.1433
  234.0000      0.1411
  235.0000      0.1394
  236.0000      0.1367
  237.0000      0.1344
  238.0000      0.1326
  239.0000      0.1308
  240.0000      0.1287
  241.0000      0.1269
  242.0000      0.1253
  243.0000      0.1241
  244.0000      0.1232
  245.0000      0.1213
  246.0000      0.1199
  247.0000      0.1191
  248.0000      0.1183
  249.0000      0.1169
  250.0000      0.1158
  251.0000      0.1149
  252.0000      0.1144
  253.0000      0.1131
  254.0000      0.1125
  255.0000      0.1113
  256.0000      0.1106
  257.0000      0.1101
  258.0000      0.1089
  259.0000      0.1082
  260.0000      0.1069
  261.0000      0.1063
  262.0000      0.1052
  263.0000      0.1041
  264.0000      0.1028
  265.0000      0.1019
  266.0000      0.1007
  267.0000      0.0995
  268.0000      0.0977
  269.0000      0.0971
  270.0000      0.0954
  271.0000      0.0940
  272.0000      0.0926
  273.0000      0.0911
  274.0000      0.0892
  275.0000      0.0887
  276.0000      0.0869
  277.0000      0.0854
  278.0000      0.0842
  279.0000      0.0824
  280.0000      0.0808
  281.0000      0.0792
  282.0000      0.0776
  283.0000      0.0759
  284.0000      0.0748
  285.0000      0.0734
  286.0000      0.0709
  287.0000      0.0703
  288.0000      0.0689
  289.0000      0.0668
  290.0000      0.0652
  291.0000      0.0638
  292.0000      0.0621
  293.0000      0.0609
  294.0000      0.0596
  295.0000      0.0578
  296.0000      0.0565
  297.0000      0.0558
  298.0000      0.0546
  299.0000      0.0530
  300.0000      0.0520
  301.0000      0.0508
  302.0000      0.0497
  303.0000      0.0488
  304.0000      0.0475
  305.0000      0.0465
  306.0000      0.0457
  307.0000      0.0445
  308.0000      0.0437
  309.0000      0.0427
  310.0000      0.0421
  311.0000      0.0416
  312.0000      0.0402
  313.0000      0.0395
  314.0000      0.0395
  315.0000      0.0383
  316.0000      0.0377
  317.0000      0.0368
  318.0000      0.0360
  319.0000      0.0353
  320.0000      0.0351
  321.0000      0.0343
  322.0000      0.0318
  323.0000      0.0312
  324.0000      0.0307
  325.0000      0.0299
  326.0000      0.0292
  327.0000      0.0287
  328.0000      0.0285
  329.0000      0.0277
  330.0000      0.0271
  331.0000      0.0272
  332.0000      0.0266
  333.0000      0.0260
  334.0000      0.0256
  335.0000      0.0253
  336.0000      0.0248
  337.0000      0.0243
  338.0000      0.0241
  339.0000      0.0237
  340.0000      0.0237
  341.0000      0.0226
  342.0000      0.0225
  343.0000      0.0219
  344.0000      0.0215
  345.0000      0.0214
  346.0000      0.0210
  347.0000      0.0201
  348.0000      0.0203
  349.0000      0.0199
  350.0000      0.0199
  351.0000      0.0192
  352.0000      0.0187
  353.0000      0.0184
  354.0000      0.0185
  355.0000      0.0180
  356.0000      0.0176
  357.0000      0.0172
  358.0000      0.0173
  359.0000      0.0187
  360.0000      0.0168
  361.0000      0.0145
  362.0000      0.0167
  363.0000      0.0165
  364.0000      0.0145
  365.0000      0.0159
  366.0000      0.0157
  367.0000      0.0151
  368.0000      0.0153
  369.0000      0.0138
  370.0000      0.0129
  371.0000      0.0138
  372.0000      0.0130
  373.0000      0.0128
  374.0000      0.0129
  375.0000      0.0127
  376.0000      0.0126
  377.0000      0.0131
  378.0000      0.0122
  379.0000      0.0119
  380.0000      0.0124
  381.0000      0.0115
  382.0000      0.0112
  383.0000      0.0107
  384.0000      0.0110
  385.0000      0.0109
  386.0000      0.0104
  387.0000      0.0102
  388.0000      0.0094
  389.0000      0.0098
  390.0000      0.0095
  391.0000      0.0095
  392.0000      0.0091
  393.0000      0.0092
  394.0000      0.0089
  395.0000      0.0089
  396.0000      0.0082
  397.0000      0.0082
  398.0000      0.0086
  399.0000      0.0083
  400.0000      0.0078
  401.0000      0.0076
  402.0000      0.0074
  403.0000      0.0074
  404.0000      0.0074
  405.0000      0.0065
  406.0000      0.0072
  407.0000      0.0076
  408.0000      0.0067
  409.0000      0.0063
  410.0000      0.0064
  411.0000      0.0064
  412.0000      0.0065
  413.0000      0.0060
  414.0000      0.0058
  415.0000      0.0057
  416.0000      0.0056
  417.0000      0.0055
  418.0000      0.0053
  419.0000      0.0054
  420.0000      0.0052
  421.0000      0.0051
  422.0000      0.0051
  423.0000      0.0049
  424.0000      0.0049
  425.0000      0.0047
  426.0000      0.0045
  427.0000      0.0045
  428.0000      0.0044
  429.0000      0.0043
  430.0000      0.0043
  431.0000      0.0042
  432.0000      0.0041
  433.0000      0.0041
  434.0000      0.0040
  435.0000      0.0039
  436.0000      0.0039
  437.0000      0.0038
  438.0000      0.0037
  439.0000      0.0036
  440.0000      0.0035
  441.0000      0.0035
  442.0000      0.0035
  443.0000      0.0034
  444.0000      0.0033
  445.0000      0.0032
  446.0000      0.0031
  447.0000      0.0030
  448.0000      0.0030
  449.0000      0.0030
  450.0000      0.0029
  451.0000      0.0029
  452.0000      0.0027
  453.0000      0.0027
  454.0000      0.0027
  455.0000      0.0026
  456.0000      0.0026
  457.0000      0.0025
  458.0000      0.0025
  459.0000      0.0024
  460.0000      0.0024
  461.0000      0.0024
  462.0000      0.0023
  463.0000      0.0024
  464.0000      0.0024
  465.0000      0.0024
  466.0000      0.0024
  467.0000      0.0023
  468.0000      0.0024
  469.0000      0.0023
  470.0000      0.0023
  471.0000      0.0023
  472.0000      0.0022
  473.0000      0.0022
  474.0000      0.0021
  475.0000      0.0021
  476.0000      0.0020
  477.0000      0.0020
  478.0000      0.0019
  479.0000      0.0019
  480.0000      0.0018
  481.0000      0.0017
  482.0000      0.0017
  483.0000      0.0016
  484.0000      0.0016
  485.0000      0.0016
  486.0000      0.0015
  487.0000      0.0015
  488.0000      0.0015
  489.0000      0.0014
  490.0000      0.0014
  491.0000      0.0014
  492.0000      0.0014
  493.0000      0.0013
  494.0000      0.0013
  495.0000      0.0013
  496.0000      0.0012
  497.0000      0.0012
  498.0000      0.0012
  499.0000      0.0012
  500.0000      0.0012
  501.0000      0.0011
  502.0000      0.0011
  503.0000      0.0011
  504.0000      0.0010
  505.0000      0.0010
  506.0000      0.0010
  507.0000      0.0010
  508.0000      0.0009
  509.0000      0.0009
  510.0000      0.0009
  511.0000      0.0009
  512.0000      0.0009
  513.0000      0.0008
  514.0000      0.0008
  515.0000      0.0008
  516.0000      0.0008
  517.0000      0.0008
  518.0000      0.0007
  519.0000      0.0007
  520.0000      0.0007
  521.0000      0.0007
  522.0000      0.0006
  523.0000      0.0006
  524.0000      0.0006
  525.0000      0.0006
  526.0000      0.0006
  527.0000      0.0005
  528.0000      0.0006
  529.0000      0.0006
  530.0000      0.0005
  531.0000      0.0005
  532.0000      0.0005
  533.0000      0.0005
  534.0000      0.0005
  535.0000      0.0005
  536.0000      0.0004
  537.0000      0.0005
  538.0000      0.0004
  539.0000      0.0004
  540.0000      0.0004
  541.0000      0.0004
  542.0000      0.0004
  543.0000      0.0003
  544.0000      0.0003
  545.0000      0.0003
  546.0000      0.0003
  547.0000      0.0003
  548.0000      0.0003
  549.0000      0.0002
  550.0000      0.0002
  551.0000      0.0002
  552.0000      0.0002
  553.0000      0.0002
  554.0000      0.0002
  555.0000      0.0002
  556.0000      0.0001
  557.0000      0.0004
  558.0000      0.0004
  559.0000      0.0004
  560.0000      0.0004
  561.0000      0.0003
  562.0000      0.0003
  563.0000      0.0003
  564.0000      0.0003
  565.0000      0.0002
  566.0000      0.0002
  567.0000      0.0002
  568.0000      0.0002
  569.0000      0.0002
  570.0000      0.0001
  571.0000      0.0002
  572.0000      0.0001
  573.0000      0.0001
  574.0000      0.0001
  575.0000      0.0001
  576.0000      0.0001
  577.0000      0.0001
  578.0000      0.0000
  579.0000      0.0000
  580.0000      0.0000
  581.0000      0.0000
  582.0000      0.0000
  583.0000      0.0000
  584.0000      0.0000
  585.0000      0.0000
  586.0000      0.0000
  587.0000      0.0000
  588.0000     -0.0000
  589.0000     -0.0000
  590.0000     -0.0000
  591.0000     -0.0000
  592.0000      0.0000
  593.0000      0.0000
  594.0000      0.0000
  595.0000      0.0000
  596.0000      0.0000
  597.0000      0.0000
  598.0000     -0.0000
  599.0000     -0.0000
  600.0000     -0.0000
  601.0000     -0.0001
  602.0000     -0.0001
  603.0000     -0.0001
  604.0000     -0.0001
  605.0000     -0.0001
  606.0000     -0.0001
  607.0000     -0.0001
  608.0000     -0.0000
  609.0000     -0.0001
  610.0000     -0.0001
  611.0000     -0.0001
  612.0000     -0.0001
  613.0000     -0.0001
  614.0000     -0.0001
  615.0000     -0.0001
  616.0000     -0.0001
  617.0000     -0.0001
  618.0000     -0.0001
  619.0000     -0.0001
  620.0000     -0.0001
  621.0000     -0.0001
  622.0000     -0.0001
  623.0000     -0.0001
  624.0000     -0.0001
  625.0000     -0.0001
  626.0000     -0.0001
  627.0000     -0.0001
  628.0000     -0.0001
  629.0000     -0.0001
  630.0000     -0.0001
  631.0000     -0.0001
  632.0000     -0.0002
  633.0000     -0.0001
  634.0000     -0.0002
  635.0000     -0.0002
  636.0000     -0.0002
  637.0000     -0.0002
  638.0000     -0.0001
  639.0000     -0.0002
  640.0000     -0.0002
  641.0000     -0.0001
  642.0000     -0.0001
  643.0000     -0.0001
  644.0000     -0.0001
  645.0000     -0.0001
  646.0000     -0.0001
  647.0000     -0.0001
  648.0000     -0.0001
  649.0000     -0.0001
  650.0000     -0.0000
  651.0000     -0.0001
  652.0000     -0.0001
  653.0000     -0.0001
  654.0000     -0.0001
  655.0000     -0.0001
  656.0000     -0.0001
  657.0000     -0.0001
  658.0000     -0.0000
  659.0000     -0.0001
  660.0000     -0.0000
  661.0000     -0.0000
  662.0000     -0.0001
  663.0000     -0.0001
  664.0000     -0.0000
  665.0000     -0.0001
  666.0000     -0.0001
  667.0000     -0.0001
  668.0000     -0.0001
  669.0000     -0.0001
  670.0000     -0.0001
  671.0000     -0.0001
  672.0000     -0.0001
  673.0000     -0.0001
  674.0000     -0.0001
  675.0000     -0.0001
  676.0000     -0.0001
  677.0000     -0.0001
  678.0000     -0.0001
  679.0000     -0.0001
  680.0000     -0.0001
  681.0000     -0.0000
  682.0000     -0.0001
  683.0000     -0.0001
  684.0000     -0.0000
  685.0000     -0.0000
  686.0000     -0.0001
  687.0000     -0.0001
  688.0000     -0.0001
  689.0000     -0.0001
  690.0000     -0.0001
  691.0000     -0.0001
  692.0000     -0.0001
  693.0000     -0.0001
  694.0000     -0.0001
  695.0000     -0.0001
  696.0000     -0.0002
  697.0000     -0.0001
  698.0000     -0.0001
  699.0000     -0.0002
  700.0000     -0.0001
  701.0000     -0.0002
  702.0000     -0.0001
  703.0000     -0.0001
  704.0000     -0.0002
  705.0000     -0.0002
  706.0000     -0.0002
  707.0000     -0.0002
  708.0000     -0.0002
  709.0000     -0.0002
  710.0000     -0.0002
  711.0000     -0.0002
  712.0000     -0.0002
  713.0000     -0.0002
  714.0000     -0.0003
  715.0000     -0.0003
  716.0000     -0.0003
  717.0000     -0.0003
  718.0000     -0.0003
  719.0000     -0.0003
  720.0000     -0.0004
  721.0000     -0.0004
  722.0000     -0.0004
  723.0000     -0.0004
  724.0000     -0.0004
  725.0000     -0.0004
  726.0000     -0.0004
  727.0000     -0.0005
  728.0000     -0.0005
  729.0000     -0.0006
  730.0000     -0.0006
  731.0000     -0.0007
  732.0000     -0.0007
  733.0000     -0.0007
  734.0000     -0.0007
  735.0000     -0.0007
  736.0000     -0.0009
  737.0000     -0.0008
  738.0000     -0.0009
  739.0000     -0.0009
  740.0000     -0.0009
  741.0000     -0.0009
  742.0000     -0.0009
  743.0000     -0.0009
  744.0000     -0.0009
  745.0000     -0.0008
  746.0000     -0.0008
  747.0000     -0.0008
  748.0000     -0.0008
  749.0000     -0.0008
  750.0000     -0.0008
  751.0000     -0.0007
  752.0000     -0.0008
  753.0000     -0.0007
  754.0000     -0.0007
  755.0000     -0.0007
  756.0000     -0.0007
  757.0000     -0.0006
  758.0000     -0.0006
  759.0000     -0.0006
  760.0000     -0.0006
  761.0000     -0.0006
  762.0000     -0.0005
  763.0000     -0.0005
  764.0000     -0.0005
  765.0000     -0.0005
  766.0000     -0.0005
  767.0000     -0.0004
  768.0000     -0.0004
  769.0000     -0.0005
  770.0000     -0.0004
  771.0000     -0.0004
  772.0000     -0.0003
  773.0000     -0.0003
  774.0000     -0.0003
  775.0000     -0.0003
  776.0000     -0.0002
  777.0000     -0.0003
  778.0000     -0.0002
  779.0000     -0.0002
  780.0000     -0.0002
  781.0000     -0.0002
  782.0000     -0.0002
  783.0000     -0.0002
  784.0000     -0.0002
  785.0000     -0.0002
  786.0000     -0.0002
  787.0000     -0.0001
  788.0000     -0.0002
  789.0000     -0.0002
  790.0000     -0.0002
  791.0000     -0.0002
  792.0000     -0.0002
  793.0000     -0.0002
  794.0000     -0.0002
  795.0000     -0.0002
  796.0000     -0.0002
  797.0000     -0.0002
  798.0000     -0.0002
  799.0000     -0.0002
  800.0000     -0.0002
