Start Wavelength:    200.0000
End Wavelength:    800.0000
Read Mode:  ABS
Read Average:      0.1000
Nanometer Interval:      1.0000
Time:      0.0000

  200.0000      0.4867
  201.0000      0.4403
  202.0000      0.4174
  203.0000      0.3987
  204.0000      0.3810
  205.0000      0.3668
  206.0000      0.3535
  207.0000      0.3428
  208.0000      0.3345
  209.0000      0.3246
  210.0000      0.3172
  211.0000      0.3096
  212.0000      0.3027
  213.0000      0.2964
  214.0000      0.2898
  215.0000      0.2845
  216.0000      0.2790
  217.0000      0.2731
  218.0000      0.2684
  219.0000      0.2638
  220.0000      0.2596
  221.0000      0.2544
  222.0000      0.2500
  223.0000      0.2463
  224.0000      0.2423
  225.0000      0.2385
  226.0000      0.2345
  227.0000      0.2308
  228.0000      0.2273
  229.0000      0.2228
  230.0000      0.2197
  231.0000      0.2162
  232.0000      0.2130
  233.0000      0.2093
  234.0000      0.2062
  235.0000      0.2038
  236.0000      0.2004
  237.0000      0.1977
  238.0000      0.1954
  239.0000      0.1931
  240.0000      0.1910
  241.0000      0.1887
  242.0000      0.1864
  243.0000      0.1853
  244.0000      0.1838
  245.0000      0.1821
  246.0000      0.1805
  247.0000      0.1791
  248.0000      0.1779
  249.0000      0.1770
  250.0000      0.1758
  251.0000      0.1747
  252.0000      0.1738
  253.0000      0.1723
  254.0000      0.1717
  255.0000      0.1706
  256.0000      0.1696
  257.0000      0.1685
  258.0000      0.1669
  259.0000      0.1666
  260.0000      0.1655
  261.0000      0.1645
  262.0000      0.1633
  263.0000      0.1618
  264.0000      0.1606
  265.0000      0.1594
  266.0000      0.1581
  267.0000      0.1568
  268.0000      0.1543
  269.0000      0.1539
  270.0000      0.1519
  271.0000      0.1499
  272.0000      0.1487
  273.0000      0.1467
  274.0000      0.1439
  275.0000      0.1434
  276.0000      0.1415
  277.0000      0.1399
  278.0000      0.1377
  279.0000      0.1358
  280.0000      0.1342
  281.0000      0.1327
  282.0000      0.1311
  283.0000      0.1286
  284.0000      0.1267
  285.0000      0.1252
  286.0000      0.1233
  287.0000      0.1216
  288.0000      0.1198
  289.0000      0.1172
  290.0000      0.1162
  291.0000      0.1145
  292.0000      0.1123
  293.0000      0.1107
  294.0000      0.1087
  295.0000      0.1069
  296.0000      0.1052
  297.0000      0.1040
  298.0000      0.1023
  299.0000      0.1009
  300.0000      0.0996
  301.0000      0.0982
  302.0000      0.0969
  303.0000      0.0960
  304.0000      0.0942
  305.0000      0.0928
  306.0000      0.0916
  307.0000      0.0901
  308.0000      0.0895
  309.0000      0.0881
  310.0000      0.0873
  311.0000      0.0863
  312.0000      0.0846
  313.0000      0.0843
  314.0000      0.0834
  315.0000      0.0819
  316.0000      0.0815
  317.0000      0.0811
  318.0000      0.0798
  319.0000      0.0786
  320.0000      0.0775
  321.0000      0.0775
  322.0000      0.0743
  323.0000      0.0733
  324.0000      0.0731
  325.0000      0.0720
  326.0000      0.0708
  327.0000      0.0697
  328.0000      0.0699
  329.0000      0.0691
  330.0000      0.0684
  331.0000      0.0678
  332.0000      0.0668
  333.0000      0.0663
  334.0000      0.0662
  335.0000      0.0651
  336.0000      0.0647
  337.0000      0.0642
  338.0000      0.0635
  339.0000      0.0629
  340.0000      0.0625
  341.0000      0.0614
  342.0000      0.0609
  343.0000      0.0608
  344.0000      0.0600
  345.0000      0.0599
  346.0000      0.0592
  347.0000      0.0583
  348.0000      0.0584
  349.0000      0.0578
  350.0000      0.0573
  351.0000      0.0568
  352.0000      0.0558
  353.0000      0.0554
  354.0000      0.0557
  355.0000      0.0553
  356.0000      0.0546
  357.0000      0.0561
  358.0000      0.0546
  359.0000      0.0546
  360.0000      0.0558
  361.0000      0.0540
  362.0000      0.0542
  363.0000      0.0521
  364.0000      0.0507
  365.0000      0.0533
  366.0000      0.0537
  367.0000      0.0517
  368.0000      0.0505
  369.0000      0.0511
  370.0000      0.0504
  371.0000      0.0511
  372.0000      0.0506
  373.0000      0.0493
  374.0000      0.0491
  375.0000      0.0484
  376.0000      0.0490
  377.0000      0.0490
  378.0000      0.0481
  379.0000      0.0477
  380.0000      0.0491
  381.0000      0.0480
  382.0000      0.0479
  383.0000      0.0474
  384.0000      0.0468
  385.0000      0.0470
  386.0000      0.0469
  387.0000      0.0469
  388.0000      0.0453
  389.0000      0.0456
  390.0000      0.0453
  391.0000      0.0456
  392.0000      0.0453
  393.0000      0.0452
  394.0000      0.0445
  395.0000      0.0445
  396.0000      0.0444
  397.0000      0.0443
  398.0000      0.0440
  399.0000      0.0434
  400.0000      0.0438
  401.0000      0.0434
  402.0000      0.0433
  403.0000      0.0432
  404.0000      0.0429
  405.0000      0.0424
  406.0000      0.0424
  407.0000      0.0432
  408.0000      0.0423
  409.0000      0.0417
  410.0000      0.0419
  411.0000      0.0416
  412.0000      0.0418
  413.0000      0.0415
  414.0000      0.0408
  415.0000      0.0405
  416.0000      0.0393
  417.0000      0.0391
  418.0000      0.0387
  419.0000      0.0386
  420.0000      0.0382
  421.0000      0.0380
  422.0000      0.0379
  423.0000      0.0376
  424.0000      0.0373
  425.0000      0.0370
  426.0000      0.0368
  427.0000      0.0367
  428.0000      0.0364
  429.0000      0.0361
  430.0000      0.0360
  431.0000      0.0358
  432.0000      0.0356
  433.0000      0.0354
  434.0000      0.0352
  435.0000      0.0350
  436.0000      0.0349
  437.0000      0.0346
  438.0000      0.0344
  439.0000      0.0343
  440.0000      0.0341
  441.0000      0.0340
  442.0000      0.0339
  443.0000      0.0338
  444.0000      0.0337
  445.0000      0.0336
  446.0000      0.0335
  447.0000      0.0334
  448.0000      0.0333
  449.0000      0.0331
  450.0000      0.0329
  451.0000      0.0328
  452.0000      0.0325
  453.0000      0.0324
  454.0000      0.0323
  455.0000      0.0321
  456.0000      0.0320
  457.0000      0.0319
  458.0000      0.0318
  459.0000      0.0317
  460.0000      0.0316
  461.0000      0.0316
  462.0000      0.0317
  463.0000      0.0316
  464.0000      0.0316
  465.0000      0.0317
  466.0000      0.0317
  467.0000      0.0316
  468.0000      0.0316
  469.0000      0.0315
  470.0000      0.0314
  471.0000      0.0314
  472.0000      0.0314
  473.0000      0.0313
  474.0000      0.0312
  475.0000      0.0311
  476.0000      0.0309
  477.0000      0.0308
  478.0000      0.0306
  479.0000      0.0305
  480.0000      0.0303
  481.0000      0.0302
  482.0000      0.0302
  483.0000      0.0302
  484.0000      0.0301
  485.0000      0.0301
  486.0000      0.0301
  487.0000      0.0302
  488.0000      0.0301
  489.0000      0.0300
  490.0000      0.0299
  491.0000      0.0299
  492.0000      0.0301
  493.0000      0.0304
  494.0000      0.0307
  495.0000      0.0308
  496.0000      0.0308
  497.0000      0.0307
  498.0000      0.0306
  499.0000      0.0305
  500.0000      0.0304
  501.0000      0.0303
  502.0000      0.0302
  503.0000      0.0300
  504.0000      0.0299
  505.0000      0.0298
  506.0000      0.0296
  507.0000      0.0295
  508.0000      0.0293
  509.0000      0.0291
  510.0000      0.0290
  511.0000      0.0290
  512.0000      0.0289
  513.0000      0.0287
  514.0000      0.0286
  515.0000      0.0284
  516.0000      0.0282
  517.0000      0.0281
  518.0000      0.0279
  519.0000      0.0277
  520.0000      0.0274
  521.0000      0.0272
  522.0000      0.0269
  523.0000      0.0268
  524.0000      0.0266
  525.0000      0.0264
  526.0000      0.0262
  527.0000      0.0261
  528.0000      0.0260
  529.0000      0.0260
  530.0000      0.0258
  531.0000      0.0256
  532.0000      0.0254
  533.0000      0.0253
  534.0000      0.0252
  535.0000      0.0251
  536.0000      0.0250
  537.0000      0.0248
  538.0000      0.0247
  539.0000      0.0246
  540.0000      0.0245
  541.0000      0.0245
  542.0000      0.0244
  543.0000      0.0245
  544.0000      0.0245
  545.0000      0.0245
  546.0000      0.0245
  547.0000      0.0244
  548.0000      0.0245
  549.0000      0.0245
  550.0000      0.0245
  551.0000      0.0245
  552.0000      0.0246
  553.0000      0.0246
  554.0000      0.0246
  555.0000      0.0247
  556.0000      0.0248
  557.0000      0.0260
  558.0000      0.0259
  559.0000      0.0259
  560.0000      0.0259
  561.0000      0.0260
  562.0000      0.0261
  563.0000      0.0262
  564.0000      0.0262
  565.0000      0.0261
  566.0000      0.0261
  567.0000      0.0260
  568.0000      0.0258
  569.0000      0.0257
  570.0000      0.0256
  571.0000      0.0256
  572.0000      0.0254
  573.0000      0.0253
  574.0000      0.0253
  575.0000      0.0253
  576.0000      0.0253
  577.0000      0.0254
  578.0000      0.0254
  579.0000      0.0254
  580.0000      0.0254
  581.0000      0.0254
  582.0000      0.0253
  583.0000      0.0253
  584.0000      0.0252
  585.0000      0.0251
  586.0000      0.0250
  587.0000      0.0248
  588.0000      0.0246
  589.0000      0.0244
  590.0000      0.0242
  591.0000      0.0240
  592.0000      0.0237
  593.0000      0.0235
  594.0000      0.0233
  595.0000      0.0231
  596.0000      0.0230
  597.0000      0.0229
  598.0000      0.0228
  599.0000      0.0228
  600.0000      0.0228
  601.0000      0.0227
  602.0000      0.0227
  603.0000      0.0227
  604.0000      0.0226
  605.0000      0.0226
  606.0000      0.0225
  607.0000      0.0225
  608.0000      0.0224
  609.0000      0.0224
  610.0000      0.0224
  611.0000      0.0223
  612.0000      0.0222
  613.0000      0.0222
  614.0000      0.0221
  615.0000      0.0220
  616.0000      0.0219
  617.0000      0.0219
  618.0000      0.0219
  619.0000      0.0218
  620.0000      0.0218
  621.0000      0.0218
  622.0000      0.0217
  623.0000      0.0216
  624.0000      0.0217
  625.0000      0.0217
  626.0000      0.0216
  627.0000      0.0216
  628.0000      0.0215
  629.0000      0.0215
  630.0000      0.0214
  631.0000      0.0214
  632.0000      0.0214
  633.0000      0.0214
  634.0000      0.0213
  635.0000      0.0214
  636.0000      0.0213
  637.0000      0.0214
  638.0000      0.0214
  639.0000      0.0214
  640.0000      0.0213
  641.0000      0.0213
  642.0000      0.0213
  643.0000      0.0212
  644.0000      0.0211
  645.0000      0.0210
  646.0000      0.0210
  647.0000      0.0209
  648.0000      0.0208
  649.0000      0.0207
  650.0000      0.0207
  651.0000      0.0206
  652.0000      0.0205
  653.0000      0.0204
  654.0000      0.0203
  655.0000      0.0203
  656.0000      0.0202
  657.0000      0.0202
  658.0000      0.0201
  659.0000      0.0201
  660.0000      0.0201
  661.0000      0.0202
  662.0000      0.0202
  663.0000      0.0202
  664.0000      0.0203
  665.0000      0.0204
  666.0000      0.0204
  667.0000      0.0204
  668.0000      0.0205
  669.0000      0.0205
  670.0000      0.0205
  671.0000      0.0205
  672.0000      0.0206
  673.0000      0.0206
  674.0000      0.0206
  675.0000      0.0206
  676.0000      0.0205
  677.0000      0.0205
  678.0000      0.0205
  679.0000      0.0204
  680.0000      0.0204
  681.0000      0.0204
  682.0000      0.0204
  683.0000      0.0204
  684.0000      0.0203
  685.0000      0.0202
  686.0000      0.0201
  687.0000      0.0201
  688.0000      0.0199
  689.0000      0.0199
  690.0000      0.0198
  691.0000      0.0198
  692.0000      0.0197
  693.0000      0.0196
  694.0000      0.0195
  695.0000      0.0194
  696.0000      0.0193
  697.0000      0.0193
  698.0000      0.0194
  699.0000      0.0194
  700.0000      0.0194
  701.0000      0.0194
  702.0000      0.0194
  703.0000      0.0194
  704.0000      0.0194
  705.0000      0.0194
  706.0000      0.0195
  707.0000      0.0196
  708.0000      0.0196
  709.0000      0.0195
  710.0000      0.0195
  711.0000      0.0195
  712.0000      0.0193
  713.0000      0.0193
  714.0000      0.0193
  715.0000      0.0192
  716.0000      0.0192
  717.0000      0.0193
  718.0000      0.0192
  719.0000      0.0192
  720.0000      0.0192
  721.0000      0.0191
  722.0000      0.0191
  723.0000      0.0191
  724.0000      0.0192
  725.0000      0.0192
  726.0000      0.0193
  727.0000      0.0191
  728.0000      0.0191
  729.0000      0.0191
  730.0000      0.0190
  731.0000      0.0190
  732.0000      0.0191
  733.0000      0.0194
  734.0000      0.0194
  735.0000      0.0194
  736.0000      0.0188
  737.0000      0.0187
  738.0000      0.0183
  739.0000      0.0182
  740.0000      0.0180
  741.0000      0.0177
  742.0000      0.0175
  743.0000      0.0173
  744.0000      0.0173
  745.0000      0.0172
  746.0000      0.0171
  747.0000      0.0171
  748.0000      0.0170
  749.0000      0.0169
  750.0000      0.0170
  751.0000      0.0170
  752.0000      0.0170
  753.0000      0.0170
  754.0000      0.0170
  755.0000      0.0170
  756.0000      0.0170
  757.0000      0.0169
  758.0000      0.0169
  759.0000      0.0170
  760.0000      0.0169
  761.0000      0.0169
  762.0000      0.0169
  763.0000      0.0168
  764.0000      0.0168
  765.0000      0.0169
  766.0000      0.0169
  767.0000      0.0169
  768.0000      0.0169
  769.0000      0.0169
  770.0000      0.0169
  771.0000      0.0169
  772.0000      0.0169
  773.0000      0.0170
  774.0000      0.0170
  775.0000      0.0170
  776.0000      0.0169
  777.0000      0.0170
  778.0000      0.0171
  779.0000      0.0170
  780.0000      0.0169
  781.0000      0.0169
  782.0000      0.0169
  783.0000      0.0169
  784.0000      0.0169
  785.0000      0.0169
  786.0000      0.0168
  787.0000      0.0168
  788.0000      0.0166
  789.0000      0.0165
  790.0000      0.0165
  791.0000      0.0164
  792.0000      0.0164
  793.0000      0.0164
  794.0000      0.0164
  795.0000      0.0164
  796.0000      0.0163
  797.0000      0.0163
  798.0000      0.0162
  799.0000      0.0162
  800.0000      0.0161
