Start Wavelength:    200.0000
End Wavelength:    800.0000
Read Mode:  ABS
Read Average:      0.1000
Nanometer Interval:      1.0000
Time:      0.0000

  200.0000     -0.0109
  201.0000     -0.0094
  202.0000     -0.0091
  203.0000     -0.0081
  204.0000     -0.0083
  205.0000     -0.0073
  206.0000     -0.0065
  207.0000     -0.0063
  208.0000     -0.0065
  209.0000     -0.0061
  210.0000     -0.0056
  211.0000     -0.0056
  212.0000     -0.0058
  213.0000     -0.0053
  214.0000     -0.0052
  215.0000     -0.0057
  216.0000     -0.0049
  217.0000     -0.0049
  218.0000     -0.0052
  219.0000     -0.0048
  220.0000     -0.0045
  221.0000     -0.0045
  222.0000     -0.0041
  223.0000     -0.0043
  224.0000     -0.0047
  225.0000     -0.0043
  226.0000     -0.0038
  227.0000     -0.0046
  228.0000     -0.0042
  229.0000     -0.0042
  230.0000     -0.0042
  231.0000     -0.0040
  232.0000     -0.0038
  233.0000     -0.0039
  234.0000     -0.0038
  235.0000     -0.0034
  236.0000     -0.0035
  237.0000     -0.0033
  238.0000     -0.0034
  239.0000     -0.0036
  240.0000     -0.0032
  241.0000     -0.0031
  242.0000     -0.0035
  243.0000     -0.0029
  244.0000     -0.0029
  245.0000     -0.0028
  246.0000     -0.0026
  247.0000     -0.0025
  248.0000     -0.0021
  249.0000     -0.0020
  250.0000     -0.0023
  251.0000     -0.0021
  252.0000     -0.0016
  253.0000     -0.0019
  254.0000     -0.0020
  255.0000     -0.0015
  256.0000     -0.0015
  257.0000     -0.0016
  258.0000     -0.0015
  259.0000     -0.0014
  260.0000     -0.0016
  261.0000     -0.0010
  262.0000     -0.0015
  263.0000     -0.0013
  264.0000     -0.0010
  265.0000     -0.0012
  266.0000     -0.0014
  267.0000     -0.0009
  268.0000     -0.0011
  269.0000     -0.0010
  270.0000     -0.0013
  271.0000     -0.0010
  272.0000     -0.0010
  273.0000     -0.0008
  274.0000     -0.0016
  275.0000     -0.0007
  276.0000     -0.0003
  277.0000     -0.0010
  278.0000     -0.0010
  279.0000     -0.0008
  280.0000     -0.0009
  281.0000     -0.0008
  282.0000     -0.0005
  283.0000     -0.0008
  284.0000     -0.0005
  285.0000     -0.0007
  286.0000     -0.0005
  287.0000     -0.0001
  288.0000     -0.0003
  289.0000     -0.0008
  290.0000     -0.0006
  291.0000     -0.0003
  292.0000     -0.0005
  293.0000     -0.0007
  294.0000     -0.0003
  295.0000     -0.0004
  296.0000     -0.0005
  297.0000     -0.0003
  298.0000     -0.0003
  299.0000     -0.0001
  300.0000     -0.0005
  301.0000     -0.0007
  302.0000     -0.0004
  303.0000     -0.0002
  304.0000     -0.0004
  305.0000     -0.0004
  306.0000     -0.0007
  307.0000     -0.0003
  308.0000     -0.0003
  309.0000     -0.0008
  310.0000     -0.0001
  311.0000      0.0001
  312.0000     -0.0008
  313.0000     -0.0001
  314.0000      0.0003
  315.0000     -0.0001
  316.0000     -0.0006
  317.0000     -0.0001
  318.0000     -0.0002
  319.0000     -0.0000
  320.0000     -0.0003
  321.0000     -0.0005
  322.0000     -0.0013
  323.0000     -0.0017
  324.0000     -0.0019
  325.0000     -0.0012
  326.0000     -0.0014
  327.0000     -0.0019
  328.0000     -0.0016
  329.0000     -0.0015
  330.0000     -0.0015
  331.0000     -0.0010
  332.0000     -0.0012
  333.0000     -0.0013
  334.0000     -0.0008
  335.0000     -0.0013
  336.0000     -0.0010
  337.0000     -0.0009
  338.0000     -0.0006
  339.0000     -0.0009
  340.0000     -0.0009
  341.0000     -0.0012
  342.0000     -0.0004
  343.0000     -0.0006
  344.0000     -0.0012
  345.0000     -0.0005
  346.0000     -0.0005
  347.0000     -0.0008
  348.0000     -0.0004
  349.0000     -0.0005
  350.0000     -0.0002
  351.0000     -0.0005
  352.0000     -0.0005
  353.0000     -0.0006
  354.0000      0.0001
  355.0000     -0.0003
  356.0000     -0.0005
  357.0000      0.0014
  358.0000      0.0007
  359.0000      0.0004
  360.0000      0.0006
  361.0000     -0.0000
  362.0000      0.0010
  363.0000      0.0010
  364.0000     -0.0024
  365.0000      0.0012
  366.0000      0.0015
  367.0000     -0.0002
  368.0000     -0.0000
  369.0000      0.0012
  370.0000      0.0005
  371.0000      0.0008
  372.0000      0.0002
  373.0000      0.0002
  374.0000      0.0014
  375.0000      0.0001
  376.0000     -0.0001
  377.0000      0.0007
  378.0000      0.0011
  379.0000      0.0005
  380.0000      0.0006
  381.0000      0.0004
  382.0000      0.0008
  383.0000      0.0009
  384.0000      0.0003
  385.0000      0.0003
  386.0000      0.0011
  387.0000      0.0006
  388.0000     -0.0007
  389.0000      0.0010
  390.0000      0.0006
  391.0000      0.0001
  392.0000      0.0005
  393.0000      0.0002
  394.0000      0.0006
  395.0000      0.0005
  396.0000     -0.0000
  397.0000      0.0005
  398.0000      0.0008
  399.0000      0.0002
  400.0000      0.0002
  401.0000      0.0006
  402.0000      0.0006
  403.0000      0.0001
  404.0000      0.0003
  405.0000     -0.0001
  406.0000      0.0004
  407.0000      0.0008
  408.0000      0.0002
  409.0000      0.0005
  410.0000      0.0005
  411.0000      0.0001
  412.0000      0.0001
  413.0000      0.0002
  414.0000      0.0002
  415.0000      0.0001
  416.0000     -0.0001
  417.0000     -0.0001
  418.0000     -0.0001
  419.0000     -0.0001
  420.0000     -0.0002
  421.0000     -0.0001
  422.0000     -0.0001
  423.0000     -0.0002
  424.0000     -0.0001
  425.0000     -0.0002
  426.0000     -0.0002
  427.0000     -0.0001
  428.0000     -0.0002
  429.0000     -0.0002
  430.0000     -0.0002
  431.0000     -0.0002
  432.0000     -0.0002
  433.0000     -0.0002
  434.0000     -0.0002
  435.0000     -0.0002
  436.0000     -0.0001
  437.0000     -0.0002
  438.0000     -0.0002
  439.0000     -0.0003
  440.0000     -0.0003
  441.0000     -0.0003
  442.0000     -0.0003
  443.0000     -0.0003
  444.0000     -0.0003
  445.0000     -0.0003
  446.0000     -0.0003
  447.0000     -0.0003
  448.0000     -0.0003
  449.0000     -0.0003
  450.0000     -0.0003
  451.0000     -0.0003
  452.0000     -0.0004
  453.0000     -0.0004
  454.0000     -0.0004
  455.0000     -0.0004
  456.0000     -0.0004
  457.0000     -0.0003
  458.0000     -0.0004
  459.0000     -0.0004
  460.0000     -0.0004
  461.0000     -0.0004
  462.0000     -0.0004
  463.0000     -0.0003
  464.0000     -0.0003
  465.0000     -0.0003
  466.0000     -0.0003
  467.0000     -0.0003
  468.0000     -0.0003
  469.0000     -0.0003
  470.0000     -0.0003
  471.0000     -0.0003
  472.0000     -0.0003
  473.0000     -0.0003
  474.0000     -0.0003
  475.0000     -0.0003
  476.0000     -0.0003
  477.0000     -0.0003
  478.0000     -0.0003
  479.0000     -0.0003
  480.0000     -0.0004
  481.0000     -0.0003
  482.0000     -0.0003
  483.0000     -0.0004
  484.0000     -0.0004
  485.0000     -0.0004
  486.0000     -0.0004
  487.0000     -0.0004
  488.0000     -0.0004
  489.0000     -0.0004
  490.0000     -0.0004
  491.0000     -0.0004
  492.0000     -0.0004
  493.0000     -0.0004
  494.0000     -0.0004
  495.0000     -0.0004
  496.0000     -0.0005
  497.0000     -0.0004
  498.0000     -0.0005
  499.0000     -0.0005
  500.0000     -0.0004
  501.0000     -0.0005
  502.0000     -0.0005
  503.0000     -0.0005
  504.0000     -0.0005
  505.0000     -0.0005
  506.0000     -0.0005
  507.0000     -0.0005
  508.0000     -0.0005
  509.0000     -0.0005
  510.0000     -0.0005
  511.0000     -0.0005
  512.0000     -0.0005
  513.0000     -0.0005
  514.0000     -0.0005
  515.0000     -0.0005
  516.0000     -0.0005
  517.0000     -0.0005
  518.0000     -0.0005
  519.0000     -0.0005
  520.0000     -0.0005
  521.0000     -0.0005
  522.0000     -0.0006
  523.0000     -0.0005
  524.0000     -0.0005
  525.0000     -0.0006
  526.0000     -0.0005
  527.0000     -0.0006
  528.0000     -0.0005
  529.0000     -0.0005
  530.0000     -0.0006
  531.0000     -0.0006
  532.0000     -0.0006
  533.0000     -0.0006
  534.0000     -0.0006
  535.0000     -0.0006
  536.0000     -0.0006
  537.0000     -0.0006
  538.0000     -0.0006
  539.0000     -0.0006
  540.0000     -0.0006
  541.0000     -0.0006
  542.0000     -0.0006
  543.0000     -0.0006
  544.0000     -0.0006
  545.0000     -0.0006
  546.0000     -0.0006
  547.0000     -0.0006
  548.0000     -0.0006
  549.0000     -0.0006
  550.0000     -0.0006
  551.0000     -0.0006
  552.0000     -0.0006
  553.0000     -0.0007
  554.0000     -0.0007
  555.0000     -0.0007
  556.0000     -0.0007
  557.0000     -0.0001
  558.0000     -0.0002
  559.0000     -0.0002
  560.0000     -0.0002
  561.0000     -0.0002
  562.0000     -0.0003
  563.0000     -0.0003
  564.0000     -0.0003
  565.0000     -0.0003
  566.0000     -0.0004
  567.0000     -0.0004
  568.0000     -0.0004
  569.0000     -0.0004
  570.0000     -0.0005
  571.0000     -0.0004
  572.0000     -0.0005
  573.0000     -0.0005
  574.0000     -0.0005
  575.0000     -0.0005
  576.0000     -0.0005
  577.0000     -0.0005
  578.0000     -0.0005
  579.0000     -0.0005
  580.0000     -0.0005
  581.0000     -0.0005
  582.0000     -0.0005
  583.0000     -0.0005
  584.0000     -0.0005
  585.0000     -0.0005
  586.0000     -0.0005
  587.0000     -0.0005
  588.0000     -0.0005
  589.0000     -0.0005
  590.0000     -0.0005
  591.0000     -0.0005
  592.0000     -0.0005
  593.0000     -0.0005
  594.0000     -0.0005
  595.0000     -0.0006
  596.0000     -0.0005
  597.0000     -0.0005
  598.0000     -0.0005
  599.0000     -0.0005
  600.0000     -0.0005
  601.0000     -0.0006
  602.0000     -0.0006
  603.0000     -0.0005
  604.0000     -0.0006
  605.0000     -0.0005
  606.0000     -0.0006
  607.0000     -0.0006
  608.0000     -0.0005
  609.0000     -0.0006
  610.0000     -0.0006
  611.0000     -0.0006
  612.0000     -0.0006
  613.0000     -0.0006
  614.0000     -0.0006
  615.0000     -0.0006
  616.0000     -0.0006
  617.0000     -0.0006
  618.0000     -0.0005
  619.0000     -0.0005
  620.0000     -0.0005
  621.0000     -0.0005
  622.0000     -0.0005
  623.0000     -0.0005
  624.0000     -0.0005
  625.0000     -0.0005
  626.0000     -0.0005
  627.0000     -0.0005
  628.0000     -0.0005
  629.0000     -0.0005
  630.0000     -0.0004
  631.0000     -0.0004
  632.0000     -0.0004
  633.0000     -0.0004
  634.0000     -0.0004
  635.0000     -0.0004
  636.0000     -0.0004
  637.0000     -0.0004
  638.0000     -0.0004
  639.0000     -0.0004
  640.0000     -0.0004
  641.0000     -0.0003
  642.0000     -0.0003
  643.0000     -0.0003
  644.0000     -0.0003
  645.0000     -0.0003
  646.0000     -0.0003
  647.0000     -0.0003
  648.0000     -0.0003
  649.0000     -0.0003
  650.0000     -0.0003
  651.0000     -0.0003
  652.0000     -0.0003
  653.0000     -0.0003
  654.0000     -0.0003
  655.0000     -0.0002
  656.0000     -0.0003
  657.0000     -0.0003
  658.0000     -0.0003
  659.0000     -0.0002
  660.0000     -0.0002
  661.0000     -0.0002
  662.0000     -0.0002
  663.0000     -0.0003
  664.0000     -0.0002
  665.0000     -0.0002
  666.0000     -0.0002
  667.0000     -0.0002
  668.0000     -0.0003
  669.0000     -0.0002
  670.0000     -0.0002
  671.0000     -0.0002
  672.0000     -0.0002
  673.0000     -0.0002
  674.0000     -0.0002
  675.0000     -0.0002
  676.0000     -0.0002
  677.0000     -0.0002
  678.0000     -0.0002
  679.0000     -0.0002
  680.0000     -0.0002
  681.0000     -0.0002
  682.0000     -0.0002
  683.0000     -0.0002
  684.0000     -0.0002
  685.0000     -0.0001
  686.0000     -0.0001
  687.0000     -0.0001
  688.0000     -0.0001
  689.0000     -0.0001
  690.0000     -0.0001
  691.0000     -0.0001
  692.0000     -0.0001
  693.0000     -0.0002
  694.0000     -0.0001
  695.0000     -0.0002
  696.0000     -0.0002
  697.0000     -0.0001
  698.0000     -0.0002
  699.0000     -0.0002
  700.0000     -0.0002
  701.0000     -0.0002
  702.0000     -0.0002
  703.0000     -0.0002
  704.0000     -0.0002
  705.0000     -0.0002
  706.0000     -0.0002
  707.0000     -0.0002
  708.0000     -0.0002
  709.0000     -0.0002
  710.0000     -0.0002
  711.0000     -0.0002
  712.0000     -0.0002
  713.0000     -0.0002
  714.0000     -0.0002
  715.0000     -0.0002
  716.0000     -0.0002
  717.0000     -0.0002
  718.0000     -0.0002
  719.0000     -0.0002
  720.0000     -0.0002
  721.0000     -0.0002
  722.0000     -0.0002
  723.0000     -0.0002
  724.0000     -0.0002
  725.0000     -0.0002
  726.0000     -0.0001
  727.0000     -0.0002
  728.0000     -0.0002
  729.0000     -0.0002
  730.0000     -0.0002
  731.0000     -0.0002
  732.0000     -0.0002
  733.0000     -0.0002
  734.0000     -0.0002
  735.0000     -0.0002
  736.0000     -0.0003
  737.0000     -0.0003
  738.0000     -0.0003
  739.0000     -0.0003
  740.0000     -0.0003
  741.0000     -0.0004
  742.0000     -0.0004
  743.0000     -0.0004
  744.0000     -0.0004
  745.0000     -0.0004
  746.0000     -0.0004
  747.0000     -0.0004
  748.0000     -0.0004
  749.0000     -0.0004
  750.0000     -0.0004
  751.0000     -0.0004
  752.0000     -0.0004
  753.0000     -0.0004
  754.0000     -0.0004
  755.0000     -0.0004
  756.0000     -0.0004
  757.0000     -0.0004
  758.0000     -0.0005
  759.0000     -0.0005
  760.0000     -0.0005
  761.0000     -0.0005
  762.0000     -0.0005
  763.0000     -0.0005
  764.0000     -0.0004
  765.0000     -0.0005
  766.0000     -0.0005
  767.0000     -0.0005
  768.0000     -0.0005
  769.0000     -0.0005
  770.0000     -0.0005
  771.0000     -0.0005
  772.0000     -0.0005
  773.0000     -0.0005
  774.0000     -0.0005
  775.0000     -0.0005
  776.0000     -0.0005
  777.0000     -0.0005
  778.0000     -0.0005
  779.0000     -0.0005
  780.0000     -0.0005
  781.0000     -0.0006
  782.0000     -0.0006
  783.0000     -0.0005
  784.0000     -0.0005
  785.0000     -0.0005
  786.0000     -0.0005
  787.0000     -0.0005
  788.0000     -0.0005
  789.0000     -0.0005
  790.0000     -0.0005
  791.0000     -0.0005
  792.0000     -0.0005
  793.0000     -0.0005
  794.0000     -0.0005
  795.0000     -0.0006
  796.0000     -0.0005
  797.0000     -0.0005
  798.0000     -0.0006
  799.0000     -0.0006
  800.0000     -0.0007
