Start Wavelength:    200.0000
End Wavelength:    800.0000
Read Mode:  ABS
Read Average:      0.1000
Nanometer Interval:      1.0000
Time:      0.0000

  200.0000      0.5411
  201.0000      0.4927
  202.0000      0.4687
  203.0000      0.4482
  204.0000      0.4284
  205.0000      0.4124
  206.0000      0.3983
  207.0000      0.3884
  208.0000      0.3784
  209.0000      0.3682
  210.0000      0.3595
  211.0000      0.3513
  212.0000      0.3439
  213.0000      0.3367
  214.0000      0.3303
  215.0000      0.3237
  216.0000      0.3178
  217.0000      0.3115
  218.0000      0.3064
  219.0000      0.3016
  220.0000      0.2966
  221.0000      0.2911
  222.0000      0.2872
  223.0000      0.2833
  224.0000      0.2786
  225.0000      0.2744
  226.0000      0.2704
  227.0000      0.2666
  228.0000      0.2635
  229.0000      0.2591
  230.0000      0.2557
  231.0000      0.2521
  232.0000      0.2490
  233.0000      0.2453
  234.0000      0.2425
  235.0000      0.2392
  236.0000      0.2362
  237.0000      0.2333
  238.0000      0.2308
  239.0000      0.2282
  240.0000      0.2258
  241.0000      0.2237
  242.0000      0.2215
  243.0000      0.2204
  244.0000      0.2184
  245.0000      0.2164
  246.0000      0.2155
  247.0000      0.2143
  248.0000      0.2133
  249.0000      0.2121
  250.0000      0.2104
  251.0000      0.2096
  252.0000      0.2086
  253.0000      0.2077
  254.0000      0.2062
  255.0000      0.2053
  256.0000      0.2045
  257.0000      0.2035
  258.0000      0.2030
  259.0000      0.2015
  260.0000      0.2002
  261.0000      0.1997
  262.0000      0.1988
  263.0000      0.1973
  264.0000      0.1960
  265.0000      0.1945
  266.0000      0.1933
  267.0000      0.1920
  268.0000      0.1906
  269.0000      0.1892
  270.0000      0.1876
  271.0000      0.1857
  272.0000      0.1845
  273.0000      0.1833
  274.0000      0.1802
  275.0000      0.1793
  276.0000      0.1779
  277.0000      0.1762
  278.0000      0.1738
  279.0000      0.1719
  280.0000      0.1702
  281.0000      0.1686
  282.0000      0.1670
  283.0000      0.1647
  284.0000      0.1627
  285.0000      0.1614
  286.0000      0.1590
  287.0000      0.1579
  288.0000      0.1551
  289.0000      0.1532
  290.0000      0.1516
  291.0000      0.1496
  292.0000      0.1469
  293.0000      0.1454
  294.0000      0.1440
  295.0000      0.1423
  296.0000      0.1404
  297.0000      0.1385
  298.0000      0.1367
  299.0000      0.1358
  300.0000      0.1339
  301.0000      0.1324
  302.0000      0.1304
  303.0000      0.1289
  304.0000      0.1278
  305.0000      0.1268
  306.0000      0.1256
  307.0000      0.1236
  308.0000      0.1227
  309.0000      0.1217
  310.0000      0.1214
  311.0000      0.1204
  312.0000      0.1183
  313.0000      0.1178
  314.0000      0.1176
  315.0000      0.1164
  316.0000      0.1155
  317.0000      0.1145
  318.0000      0.1130
  319.0000      0.1121
  320.0000      0.1120
  321.0000      0.1114
  322.0000      0.1083
  323.0000      0.1078
  324.0000      0.1070
  325.0000      0.1064
  326.0000      0.1051
  327.0000      0.1046
  328.0000      0.1047
  329.0000      0.1039
  330.0000      0.1030
  331.0000      0.1024
  332.0000      0.1019
  333.0000      0.1014
  334.0000      0.1014
  335.0000      0.1003
  336.0000      0.0997
  337.0000      0.0991
  338.0000      0.0987
  339.0000      0.0982
  340.0000      0.0974
  341.0000      0.0960
  342.0000      0.0960
  343.0000      0.0955
  344.0000      0.0948
  345.0000      0.0948
  346.0000      0.0934
  347.0000      0.0929
  348.0000      0.0929
  349.0000      0.0922
  350.0000      0.0916
  351.0000      0.0912
  352.0000      0.0907
  353.0000      0.0900
  354.0000      0.0900
  355.0000      0.0891
  356.0000      0.0888
  357.0000      0.0903
  358.0000      0.0887
  359.0000      0.0901
  360.0000      0.0891
  361.0000      0.0880
  362.0000      0.0889
  363.0000      0.0864
  364.0000      0.0863
  365.0000      0.0864
  366.0000      0.0872
  367.0000      0.0848
  368.0000      0.0857
  369.0000      0.0859
  370.0000      0.0850
  371.0000      0.0851
  372.0000      0.0833
  373.0000      0.0834
  374.0000      0.0846
  375.0000      0.0837
  376.0000      0.0826
  377.0000      0.0830
  378.0000      0.0816
  379.0000      0.0818
  380.0000      0.0826
  381.0000      0.0807
  382.0000      0.0801
  383.0000      0.0804
  384.0000      0.0801
  385.0000      0.0790
  386.0000      0.0797
  387.0000      0.0793
  388.0000      0.0775
  389.0000      0.0782
  390.0000      0.0777
  391.0000      0.0777
  392.0000      0.0771
  393.0000      0.0772
  394.0000      0.0765
  395.0000      0.0768
  396.0000      0.0759
  397.0000      0.0749
  398.0000      0.0758
  399.0000      0.0754
  400.0000      0.0748
  401.0000      0.0743
  402.0000      0.0737
  403.0000      0.0737
  404.0000      0.0741
  405.0000      0.0732
  406.0000      0.0730
  407.0000      0.0731
  408.0000      0.0725
  409.0000      0.0723
  410.0000      0.0723
  411.0000      0.0713
  412.0000      0.0715
  413.0000      0.0711
  414.0000      0.0710
  415.0000      0.0705
  416.0000      0.0721
  417.0000      0.0719
  418.0000      0.0718
  419.0000      0.0715
  420.0000      0.0713
  421.0000      0.0712
  422.0000      0.0710
  423.0000      0.0707
  424.0000      0.0704
  425.0000      0.0701
  426.0000      0.0699
  427.0000      0.0697
  428.0000      0.0694
  429.0000      0.0693
  430.0000      0.0691
  431.0000      0.0689
  432.0000      0.0687
  433.0000      0.0685
  434.0000      0.0683
  435.0000      0.0681
  436.0000      0.0680
  437.0000      0.0676
  438.0000      0.0674
  439.0000      0.0672
  440.0000      0.0669
  441.0000      0.0668
  442.0000      0.0666
  443.0000      0.0664
  444.0000      0.0662
  445.0000      0.0661
  446.0000      0.0660
  447.0000      0.0658
  448.0000      0.0657
  449.0000      0.0655
  450.0000      0.0652
  451.0000      0.0650
  452.0000      0.0647
  453.0000      0.0645
  454.0000      0.0642
  455.0000      0.0639
  456.0000      0.0638
  457.0000      0.0635
  458.0000      0.0631
  459.0000      0.0631
  460.0000      0.0627
  461.0000      0.0626
  462.0000      0.0624
  463.0000      0.0623
  464.0000      0.0622
  465.0000      0.0621
  466.0000      0.0621
  467.0000      0.0619
  468.0000      0.0620
  469.0000      0.0619
  470.0000      0.0617
  471.0000      0.0614
  472.0000      0.0612
  473.0000      0.0609
  474.0000      0.0607
  475.0000      0.0605
  476.0000      0.0602
  477.0000      0.0601
  478.0000      0.0599
  479.0000      0.0597
  480.0000      0.0596
  481.0000      0.0593
  482.0000      0.0592
  483.0000      0.0590
  484.0000      0.0588
  485.0000      0.0586
  486.0000      0.0585
  487.0000      0.0583
  488.0000      0.0581
  489.0000      0.0579
  490.0000      0.0578
  491.0000      0.0577
  492.0000      0.0576
  493.0000      0.0574
  494.0000      0.0572
  495.0000      0.0570
  496.0000      0.0567
  497.0000      0.0565
  498.0000      0.0563
  499.0000      0.0560
  500.0000      0.0559
  501.0000      0.0558
  502.0000      0.0558
  503.0000      0.0558
  504.0000      0.0557
  505.0000      0.0556
  506.0000      0.0555
  507.0000      0.0553
  508.0000      0.0552
  509.0000      0.0550
  510.0000      0.0549
  511.0000      0.0548
  512.0000      0.0547
  513.0000      0.0545
  514.0000      0.0543
  515.0000      0.0542
  516.0000      0.0542
  517.0000      0.0542
  518.0000      0.0541
  519.0000      0.0541
  520.0000      0.0542
  521.0000      0.0541
  522.0000      0.0541
  523.0000      0.0540
  524.0000      0.0540
  525.0000      0.0539
  526.0000      0.0538
  527.0000      0.0537
  528.0000      0.0537
  529.0000      0.0536
  530.0000      0.0535
  531.0000      0.0534
  532.0000      0.0533
  533.0000      0.0532
  534.0000      0.0532
  535.0000      0.0531
  536.0000      0.0530
  537.0000      0.0530
  538.0000      0.0528
  539.0000      0.0527
  540.0000      0.0525
  541.0000      0.0524
  542.0000      0.0522
  543.0000      0.0521
  544.0000      0.0520
  545.0000      0.0517
  546.0000      0.0516
  547.0000      0.0514
  548.0000      0.0512
  549.0000      0.0509
  550.0000      0.0508
  551.0000      0.0506
  552.0000      0.0504
  553.0000      0.0504
  554.0000      0.0503
  555.0000      0.0503
  556.0000      0.0502
  557.0000      0.0511
  558.0000      0.0508
  559.0000      0.0506
  560.0000      0.0505
  561.0000      0.0502
  562.0000      0.0501
  563.0000      0.0499
  564.0000      0.0497
  565.0000      0.0496
  566.0000      0.0494
  567.0000      0.0491
  568.0000      0.0488
  569.0000      0.0486
  570.0000      0.0485
  571.0000      0.0484
  572.0000      0.0483
  573.0000      0.0484
  574.0000      0.0483
  575.0000      0.0483
  576.0000      0.0482
  577.0000      0.0481
  578.0000      0.0480
  579.0000      0.0480
  580.0000      0.0479
  581.0000      0.0478
  582.0000      0.0477
  583.0000      0.0477
  584.0000      0.0477
  585.0000      0.0477
  586.0000      0.0478
  587.0000      0.0478
  588.0000      0.0477
  589.0000      0.0475
  590.0000      0.0475
  591.0000      0.0475
  592.0000      0.0475
  593.0000      0.0475
  594.0000      0.0474
  595.0000      0.0473
  596.0000      0.0472
  597.0000      0.0470
  598.0000      0.0468
  599.0000      0.0467
  600.0000      0.0466
  601.0000      0.0464
  602.0000      0.0463
  603.0000      0.0462
  604.0000      0.0461
  605.0000      0.0460
  606.0000      0.0460
  607.0000      0.0459
  608.0000      0.0458
  609.0000      0.0458
  610.0000      0.0457
  611.0000      0.0456
  612.0000      0.0456
  613.0000      0.0456
  614.0000      0.0456
  615.0000      0.0456
  616.0000      0.0456
  617.0000      0.0455
  618.0000      0.0456
  619.0000      0.0457
  620.0000      0.0457
  621.0000      0.0457
  622.0000      0.0456
  623.0000      0.0456
  624.0000      0.0455
  625.0000      0.0455
  626.0000      0.0455
  627.0000      0.0455
  628.0000      0.0454
  629.0000      0.0453
  630.0000      0.0453
  631.0000      0.0452
  632.0000      0.0452
  633.0000      0.0450
  634.0000      0.0449
  635.0000      0.0448
  636.0000      0.0447
  637.0000      0.0446
  638.0000      0.0445
  639.0000      0.0445
  640.0000      0.0444
  641.0000      0.0443
  642.0000      0.0442
  643.0000      0.0440
  644.0000      0.0440
  645.0000      0.0439
  646.0000      0.0439
  647.0000      0.0438
  648.0000      0.0438
  649.0000      0.0438
  650.0000      0.0439
  651.0000      0.0440
  652.0000      0.0440
  653.0000      0.0440
  654.0000      0.0440
  655.0000      0.0439
  656.0000      0.0439
  657.0000      0.0439
  658.0000      0.0440
  659.0000      0.0440
  660.0000      0.0440
  661.0000      0.0439
  662.0000      0.0438
  663.0000      0.0437
  664.0000      0.0436
  665.0000      0.0435
  666.0000      0.0434
  667.0000      0.0434
  668.0000      0.0433
  669.0000      0.0433
  670.0000      0.0433
  671.0000      0.0432
  672.0000      0.0431
  673.0000      0.0431
  674.0000      0.0430
  675.0000      0.0429
  676.0000      0.0429
  677.0000      0.0429
  678.0000      0.0429
  679.0000      0.0430
  680.0000      0.0430
  681.0000      0.0430
  682.0000      0.0430
  683.0000      0.0429
  684.0000      0.0428
  685.0000      0.0426
  686.0000      0.0424
  687.0000      0.0423
  688.0000      0.0423
  689.0000      0.0423
  690.0000      0.0423
  691.0000      0.0423
  692.0000      0.0424
  693.0000      0.0424
  694.0000      0.0425
  695.0000      0.0424
  696.0000      0.0424
  697.0000      0.0425
  698.0000      0.0425
  699.0000      0.0426
  700.0000      0.0426
  701.0000      0.0426
  702.0000      0.0427
  703.0000      0.0427
  704.0000      0.0427
  705.0000      0.0426
  706.0000      0.0425
  707.0000      0.0424
  708.0000      0.0423
  709.0000      0.0422
  710.0000      0.0418
  711.0000      0.0416
  712.0000      0.0413
  713.0000      0.0409
  714.0000      0.0405
  715.0000      0.0401
  716.0000      0.0398
  717.0000      0.0395
  718.0000      0.0393
  719.0000      0.0391
  720.0000      0.0390
  721.0000      0.0389
  722.0000      0.0389
  723.0000      0.0389
  724.0000      0.0389
  725.0000      0.0389
  726.0000      0.0389
  727.0000      0.0389
  728.0000      0.0390
  729.0000      0.0390
  730.0000      0.0390
  731.0000      0.0390
  732.0000      0.0390
  733.0000      0.0392
  734.0000      0.0391
  735.0000      0.0392
  736.0000      0.0390
  737.0000      0.0391
  738.0000      0.0390
  739.0000      0.0390
  740.0000      0.0390
  741.0000      0.0389
  742.0000      0.0389
  743.0000      0.0389
  744.0000      0.0389
  745.0000      0.0389
  746.0000      0.0388
  747.0000      0.0387
  748.0000      0.0387
  749.0000      0.0385
  750.0000      0.0384
  751.0000      0.0383
  752.0000      0.0383
  753.0000      0.0383
  754.0000      0.0382
  755.0000      0.0382
  756.0000      0.0382
  757.0000      0.0381
  758.0000      0.0381
  759.0000      0.0382
  760.0000      0.0382
  761.0000      0.0382
  762.0000      0.0382
  763.0000      0.0381
  764.0000      0.0381
  765.0000      0.0381
  766.0000      0.0380
  767.0000      0.0380
  768.0000      0.0379
  769.0000      0.0378
  770.0000      0.0377
  771.0000      0.0377
  772.0000      0.0377
  773.0000      0.0376
  774.0000      0.0377
  775.0000      0.0376
  776.0000      0.0376
  777.0000      0.0377
  778.0000      0.0377
  779.0000      0.0377
  780.0000      0.0376
  781.0000      0.0376
  782.0000      0.0376
  783.0000      0.0376
  784.0000      0.0375
  785.0000      0.0376
  786.0000      0.0376
  787.0000      0.0376
  788.0000      0.0376
  789.0000      0.0375
  790.0000      0.0374
  791.0000      0.0375
  792.0000      0.0374
  793.0000      0.0373
  794.0000      0.0373
  795.0000      0.0373
  796.0000      0.0372
  797.0000      0.0372
  798.0000      0.0371
  799.0000      0.0370
  800.0000      0.0369
