Start Wavelength:    200.0000
End Wavelength:    800.0000
Read Mode:  ABS
Read Average:      0.1000
Nanometer Interval:      1.0000
Time:      0.0000

  200.0000      0.4436
  201.0000      0.4003
  202.0000      0.3806
  203.0000      0.3623
  204.0000      0.3441
  205.0000      0.3297
  206.0000      0.3190
  207.0000      0.3089
  208.0000      0.2995
  209.0000      0.2899
  210.0000      0.2820
  211.0000      0.2755
  212.0000      0.2685
  213.0000      0.2622
  214.0000      0.2555
  215.0000      0.2494
  216.0000      0.2447
  217.0000      0.2388
  218.0000      0.2335
  219.0000      0.2286
  220.0000      0.2248
  221.0000      0.2198
  222.0000      0.2158
  223.0000      0.2120
  224.0000      0.2078
  225.0000      0.2043
  226.0000      0.2010
  227.0000      0.1976
  228.0000      0.1941
  229.0000      0.1901
  230.0000      0.1875
  231.0000      0.1841
  232.0000      0.1813
  233.0000      0.1778
  234.0000      0.1745
  235.0000      0.1724
  236.0000      0.1694
  237.0000      0.1668
  238.0000      0.1643
  239.0000      0.1622
  240.0000      0.1601
  241.0000      0.1581
  242.0000      0.1560
  243.0000      0.1546
  244.0000      0.1531
  245.0000      0.1515
  246.0000      0.1501
  247.0000      0.1489
  248.0000      0.1479
  249.0000      0.1465
  250.0000      0.1455
  251.0000      0.1442
  252.0000      0.1434
  253.0000      0.1428
  254.0000      0.1414
  255.0000      0.1409
  256.0000      0.1395
  257.0000      0.1392
  258.0000      0.1385
  259.0000      0.1379
  260.0000      0.1365
  261.0000      0.1354
  262.0000      0.1347
  263.0000      0.1337
  264.0000      0.1317
  265.0000      0.1303
  266.0000      0.1291
  267.0000      0.1280
  268.0000      0.1259
  269.0000      0.1246
  270.0000      0.1225
  271.0000      0.1211
  272.0000      0.1194
  273.0000      0.1183
  274.0000      0.1157
  275.0000      0.1146
  276.0000      0.1127
  277.0000      0.1113
  278.0000      0.1099
  279.0000      0.1077
  280.0000      0.1060
  281.0000      0.1047
  282.0000      0.1033
  283.0000      0.1012
  284.0000      0.0995
  285.0000      0.0982
  286.0000      0.0963
  287.0000      0.0949
  288.0000      0.0931
  289.0000      0.0907
  290.0000      0.0899
  291.0000      0.0882
  292.0000      0.0859
  293.0000      0.0846
  294.0000      0.0828
  295.0000      0.0813
  296.0000      0.0802
  297.0000      0.0787
  298.0000      0.0769
  299.0000      0.0759
  300.0000      0.0748
  301.0000      0.0736
  302.0000      0.0718
  303.0000      0.0711
  304.0000      0.0703
  305.0000      0.0691
  306.0000      0.0677
  307.0000      0.0660
  308.0000      0.0659
  309.0000      0.0647
  310.0000      0.0640
  311.0000      0.0633
  312.0000      0.0619
  313.0000      0.0612
  314.0000      0.0611
  315.0000      0.0599
  316.0000      0.0586
  317.0000      0.0584
  318.0000      0.0573
  319.0000      0.0567
  320.0000      0.0563
  321.0000      0.0550
  322.0000      0.0533
  323.0000      0.0524
  324.0000      0.0519
  325.0000      0.0509
  326.0000      0.0502
  327.0000      0.0494
  328.0000      0.0495
  329.0000      0.0486
  330.0000      0.0475
  331.0000      0.0477
  332.0000      0.0470
  333.0000      0.0462
  334.0000      0.0457
  335.0000      0.0451
  336.0000      0.0448
  337.0000      0.0444
  338.0000      0.0438
  339.0000      0.0430
  340.0000      0.0431
  341.0000      0.0423
  342.0000      0.0424
  343.0000      0.0417
  344.0000      0.0410
  345.0000      0.0409
  346.0000      0.0406
  347.0000      0.0396
  348.0000      0.0395
  349.0000      0.0387
  350.0000      0.0386
  351.0000      0.0383
  352.0000      0.0376
  353.0000      0.0370
  354.0000      0.0372
  355.0000      0.0368
  356.0000      0.0365
  357.0000      0.0374
  358.0000      0.0363
  359.0000      0.0359
  360.0000      0.0352
  361.0000      0.0331
  362.0000      0.0358
  363.0000      0.0346
  364.0000      0.0315
  365.0000      0.0350
  366.0000      0.0348
  367.0000      0.0331
  368.0000      0.0327
  369.0000      0.0331
  370.0000      0.0319
  371.0000      0.0326
  372.0000      0.0316
  373.0000      0.0311
  374.0000      0.0323
  375.0000      0.0310
  376.0000      0.0308
  377.0000      0.0312
  378.0000      0.0300
  379.0000      0.0301
  380.0000      0.0313
  381.0000      0.0297
  382.0000      0.0292
  383.0000      0.0294
  384.0000      0.0290
  385.0000      0.0286
  386.0000      0.0288
  387.0000      0.0284
  388.0000      0.0276
  389.0000      0.0282
  390.0000      0.0277
  391.0000      0.0273
  392.0000      0.0273
  393.0000      0.0271
  394.0000      0.0272
  395.0000      0.0267
  396.0000      0.0261
  397.0000      0.0266
  398.0000      0.0271
  399.0000      0.0259
  400.0000      0.0256
  401.0000      0.0257
  402.0000      0.0251
  403.0000      0.0253
  404.0000      0.0252
  405.0000      0.0242
  406.0000      0.0245
  407.0000      0.0251
  408.0000      0.0244
  409.0000      0.0239
  410.0000      0.0237
  411.0000      0.0239
  412.0000      0.0239
  413.0000      0.0233
  414.0000      0.0230
  415.0000      0.0232
  416.0000      0.0227
  417.0000      0.0226
  418.0000      0.0225
  419.0000      0.0224
  420.0000      0.0223
  421.0000      0.0222
  422.0000      0.0221
  423.0000      0.0219
  424.0000      0.0219
  425.0000      0.0216
  426.0000      0.0215
  427.0000      0.0214
  428.0000      0.0212
  429.0000      0.0212
  430.0000      0.0211
  431.0000      0.0210
  432.0000      0.0208
  433.0000      0.0207
  434.0000      0.0207
  435.0000      0.0204
  436.0000      0.0204
  437.0000      0.0203
  438.0000      0.0202
  439.0000      0.0200
  440.0000      0.0198
  441.0000      0.0197
  442.0000      0.0196
  443.0000      0.0194
  444.0000      0.0192
  445.0000      0.0191
  446.0000      0.0189
  447.0000      0.0188
  448.0000      0.0187
  449.0000      0.0185
  450.0000      0.0184
  451.0000      0.0182
  452.0000      0.0181
  453.0000      0.0179
  454.0000      0.0177
  455.0000      0.0176
  456.0000      0.0176
  457.0000      0.0174
  458.0000      0.0173
  459.0000      0.0172
  460.0000      0.0171
  461.0000      0.0171
  462.0000      0.0170
  463.0000      0.0170
  464.0000      0.0170
  465.0000      0.0169
  466.0000      0.0169
  467.0000      0.0167
  468.0000      0.0167
  469.0000      0.0166
  470.0000      0.0165
  471.0000      0.0165
  472.0000      0.0163
  473.0000      0.0163
  474.0000      0.0162
  475.0000      0.0162
  476.0000      0.0161
  477.0000      0.0160
  478.0000      0.0159
  479.0000      0.0159
  480.0000      0.0158
  481.0000      0.0157
  482.0000      0.0157
  483.0000      0.0156
  484.0000      0.0155
  485.0000      0.0154
  486.0000      0.0152
  487.0000      0.0152
  488.0000      0.0152
  489.0000      0.0152
  490.0000      0.0151
  491.0000      0.0151
  492.0000      0.0150
  493.0000      0.0150
  494.0000      0.0149
  495.0000      0.0149
  496.0000      0.0148
  497.0000      0.0148
  498.0000      0.0146
  499.0000      0.0145
  500.0000      0.0144
  501.0000      0.0143
  502.0000      0.0143
  503.0000      0.0142
  504.0000      0.0142
  505.0000      0.0142
  506.0000      0.0141
  507.0000      0.0141
  508.0000      0.0140
  509.0000      0.0140
  510.0000      0.0139
  511.0000      0.0138
  512.0000      0.0137
  513.0000      0.0136
  514.0000      0.0136
  515.0000      0.0136
  516.0000      0.0135
  517.0000      0.0135
  518.0000      0.0134
  519.0000      0.0134
  520.0000      0.0134
  521.0000      0.0133
  522.0000      0.0133
  523.0000      0.0132
  524.0000      0.0132
  525.0000      0.0132
  526.0000      0.0132
  527.0000      0.0132
  528.0000      0.0132
  529.0000      0.0131
  530.0000      0.0130
  531.0000      0.0129
  532.0000      0.0129
  533.0000      0.0128
  534.0000      0.0127
  535.0000      0.0126
  536.0000      0.0125
  537.0000      0.0124
  538.0000      0.0123
  539.0000      0.0123
  540.0000      0.0122
  541.0000      0.0121
  542.0000      0.0121
  543.0000      0.0120
  544.0000      0.0120
  545.0000      0.0120
  546.0000      0.0120
  547.0000      0.0119
  548.0000      0.0119
  549.0000      0.0119
  550.0000      0.0118
  551.0000      0.0118
  552.0000      0.0118
  553.0000      0.0117
  554.0000      0.0117
  555.0000      0.0116
  556.0000      0.0115
  557.0000      0.0113
  558.0000      0.0113
  559.0000      0.0112
  560.0000      0.0112
  561.0000      0.0111
  562.0000      0.0111
  563.0000      0.0111
  564.0000      0.0111
  565.0000      0.0111
  566.0000      0.0111
  567.0000      0.0111
  568.0000      0.0111
  569.0000      0.0111
  570.0000      0.0111
  571.0000      0.0111
  572.0000      0.0111
  573.0000      0.0112
  574.0000      0.0113
  575.0000      0.0114
  576.0000      0.0114
  577.0000      0.0115
  578.0000      0.0115
  579.0000      0.0115
  580.0000      0.0115
  581.0000      0.0114
  582.0000      0.0114
  583.0000      0.0113
  584.0000      0.0112
  585.0000      0.0111
  586.0000      0.0111
  587.0000      0.0110
  588.0000      0.0110
  589.0000      0.0109
  590.0000      0.0109
  591.0000      0.0109
  592.0000      0.0110
  593.0000      0.0109
  594.0000      0.0108
  595.0000      0.0108
  596.0000      0.0107
  597.0000      0.0106
  598.0000      0.0105
  599.0000      0.0105
  600.0000      0.0104
  601.0000      0.0102
  602.0000      0.0101
  603.0000      0.0101
  604.0000      0.0100
  605.0000      0.0100
  606.0000      0.0100
  607.0000      0.0100
  608.0000      0.0100
  609.0000      0.0100
  610.0000      0.0100
  611.0000      0.0100
  612.0000      0.0100
  613.0000      0.0101
  614.0000      0.0101
  615.0000      0.0101
  616.0000      0.0101
  617.0000      0.0101
  618.0000      0.0101
  619.0000      0.0101
  620.0000      0.0100
  621.0000      0.0100
  622.0000      0.0100
  623.0000      0.0099
  624.0000      0.0099
  625.0000      0.0098
  626.0000      0.0098
  627.0000      0.0098
  628.0000      0.0098
  629.0000      0.0098
  630.0000      0.0098
  631.0000      0.0098
  632.0000      0.0098
  633.0000      0.0098
  634.0000      0.0098
  635.0000      0.0098
  636.0000      0.0098
  637.0000      0.0098
  638.0000      0.0098
  639.0000      0.0097
  640.0000      0.0097
  641.0000      0.0097
  642.0000      0.0097
  643.0000      0.0097
  644.0000      0.0097
  645.0000      0.0096
  646.0000      0.0096
  647.0000      0.0096
  648.0000      0.0096
  649.0000      0.0095
  650.0000      0.0096
  651.0000      0.0096
  652.0000      0.0096
  653.0000      0.0096
  654.0000      0.0096
  655.0000      0.0097
  656.0000      0.0097
  657.0000      0.0098
  658.0000      0.0098
  659.0000      0.0098
  660.0000      0.0098
  661.0000      0.0099
  662.0000      0.0099
  663.0000      0.0099
  664.0000      0.0100
  665.0000      0.0100
  666.0000      0.0100
  667.0000      0.0100
  668.0000      0.0100
  669.0000      0.0101
  670.0000      0.0101
  671.0000      0.0101
  672.0000      0.0101
  673.0000      0.0101
  674.0000      0.0101
  675.0000      0.0101
  676.0000      0.0100
  677.0000      0.0100
  678.0000      0.0100
  679.0000      0.0100
  680.0000      0.0099
  681.0000      0.0098
  682.0000      0.0098
  683.0000      0.0097
  684.0000      0.0096
  685.0000      0.0095
  686.0000      0.0094
  687.0000      0.0093
  688.0000      0.0092
  689.0000      0.0091
  690.0000      0.0090
  691.0000      0.0090
  692.0000      0.0089
  693.0000      0.0089
  694.0000      0.0088
  695.0000      0.0088
  696.0000      0.0087
  697.0000      0.0087
  698.0000      0.0087
  699.0000      0.0087
  700.0000      0.0086
  701.0000      0.0085
  702.0000      0.0085
  703.0000      0.0085
  704.0000      0.0084
  705.0000      0.0085
  706.0000      0.0085
  707.0000      0.0084
  708.0000      0.0084
  709.0000      0.0085
  710.0000      0.0084
  711.0000      0.0084
  712.0000      0.0084
  713.0000      0.0084
  714.0000      0.0084
  715.0000      0.0084
  716.0000      0.0084
  717.0000      0.0084
  718.0000      0.0083
  719.0000      0.0083
  720.0000      0.0083
  721.0000      0.0082
  722.0000      0.0082
  723.0000      0.0082
  724.0000      0.0082
  725.0000      0.0082
  726.0000      0.0081
  727.0000      0.0080
  728.0000      0.0080
  729.0000      0.0079
  730.0000      0.0079
  731.0000      0.0077
  732.0000      0.0076
  733.0000      0.0076
  734.0000      0.0075
  735.0000      0.0074
  736.0000      0.0073
  737.0000      0.0073
  738.0000      0.0073
  739.0000      0.0073
  740.0000      0.0073
  741.0000      0.0073
  742.0000      0.0074
  743.0000      0.0074
  744.0000      0.0075
  745.0000      0.0074
  746.0000      0.0075
  747.0000      0.0075
  748.0000      0.0075
  749.0000      0.0075
  750.0000      0.0076
  751.0000      0.0076
  752.0000      0.0076
  753.0000      0.0077
  754.0000      0.0077
  755.0000      0.0077
  756.0000      0.0078
  757.0000      0.0078
  758.0000      0.0077
  759.0000      0.0078
  760.0000      0.0078
  761.0000      0.0078
  762.0000      0.0078
  763.0000      0.0078
  764.0000      0.0077
  765.0000      0.0077
  766.0000      0.0077
  767.0000      0.0077
  768.0000      0.0077
  769.0000      0.0076
  770.0000      0.0076
  771.0000      0.0076
  772.0000      0.0076
  773.0000      0.0076
  774.0000      0.0076
  775.0000      0.0076
  776.0000      0.0076
  777.0000      0.0075
  778.0000      0.0076
  779.0000      0.0075
  780.0000      0.0075
  781.0000      0.0075
  782.0000      0.0075
  783.0000      0.0076
  784.0000      0.0075
  785.0000      0.0075
  786.0000      0.0075
  787.0000      0.0075
  788.0000      0.0075
  789.0000      0.0075
  790.0000      0.0075
  791.0000      0.0075
  792.0000      0.0075
  793.0000      0.0074
  794.0000      0.0074
  795.0000      0.0074
  796.0000      0.0074
  797.0000      0.0074
  798.0000      0.0073
  799.0000      0.0073
  800.0000      0.0073
