Start Wavelength:    200.0000
End Wavelength:    800.0000
Read Mode:  ABS
Read Average:      0.1000
Nanometer Interval:      1.0000
Time:      0.0000

  200.0000      0.4188
  201.0000      0.3741
  202.0000      0.3517
  203.0000      0.3343
  204.0000      0.3165
  205.0000      0.3014
  206.0000      0.2917
  207.0000      0.2823
  208.0000      0.2728
  209.0000      0.2635
  210.0000      0.2567
  211.0000      0.2493
  212.0000      0.2427
  213.0000      0.2362
  214.0000      0.2304
  215.0000      0.2246
  216.0000      0.2191
  217.0000      0.2139
  218.0000      0.2091
  219.0000      0.2047
  220.0000      0.2000
  221.0000      0.1954
  222.0000      0.1922
  223.0000      0.1881
  224.0000      0.1841
  225.0000      0.1809
  226.0000      0.1777
  227.0000      0.1740
  228.0000      0.1711
  229.0000      0.1678
  230.0000      0.1650
  231.0000      0.1620
  232.0000      0.1597
  233.0000      0.1565
  234.0000      0.1540
  235.0000      0.1514
  236.0000      0.1491
  237.0000      0.1467
  238.0000      0.1447
  239.0000      0.1421
  240.0000      0.1402
  241.0000      0.1384
  242.0000      0.1365
  243.0000      0.1350
  244.0000      0.1339
  245.0000      0.1320
  246.0000      0.1306
  247.0000      0.1296
  248.0000      0.1287
  249.0000      0.1277
  250.0000      0.1261
  251.0000      0.1253
  252.0000      0.1247
  253.0000      0.1230
  254.0000      0.1221
  255.0000      0.1213
  256.0000      0.1203
  257.0000      0.1195
  258.0000      0.1184
  259.0000      0.1179
  260.0000      0.1166
  261.0000      0.1159
  262.0000      0.1146
  263.0000      0.1136
  264.0000      0.1126
  265.0000      0.1105
  266.0000      0.1095
  267.0000      0.1084
  268.0000      0.1066
  269.0000      0.1054
  270.0000      0.1037
  271.0000      0.1020
  272.0000      0.1008
  273.0000      0.0990
  274.0000      0.0973
  275.0000      0.0962
  276.0000      0.0945
  277.0000      0.0931
  278.0000      0.0916
  279.0000      0.0903
  280.0000      0.0874
  281.0000      0.0865
  282.0000      0.0850
  283.0000      0.0829
  284.0000      0.0812
  285.0000      0.0801
  286.0000      0.0780
  287.0000      0.0769
  288.0000      0.0746
  289.0000      0.0729
  290.0000      0.0722
  291.0000      0.0701
  292.0000      0.0682
  293.0000      0.0673
  294.0000      0.0659
  295.0000      0.0640
  296.0000      0.0625
  297.0000      0.0614
  298.0000      0.0602
  299.0000      0.0586
  300.0000      0.0579
  301.0000      0.0562
  302.0000      0.0551
  303.0000      0.0539
  304.0000      0.0533
  305.0000      0.0521
  306.0000      0.0503
  307.0000      0.0494
  308.0000      0.0489
  309.0000      0.0479
  310.0000      0.0473
  311.0000      0.0464
  312.0000      0.0449
  313.0000      0.0445
  314.0000      0.0441
  315.0000      0.0427
  316.0000      0.0419
  317.0000      0.0415
  318.0000      0.0402
  319.0000      0.0395
  320.0000      0.0393
  321.0000      0.0391
  322.0000      0.0360
  323.0000      0.0352
  324.0000      0.0349
  325.0000      0.0343
  326.0000      0.0333
  327.0000      0.0325
  328.0000      0.0326
  329.0000      0.0316
  330.0000      0.0309
  331.0000      0.0312
  332.0000      0.0303
  333.0000      0.0293
  334.0000      0.0294
  335.0000      0.0286
  336.0000      0.0283
  337.0000      0.0278
  338.0000      0.0273
  339.0000      0.0273
  340.0000      0.0264
  341.0000      0.0258
  342.0000      0.0259
  343.0000      0.0254
  344.0000      0.0245
  345.0000      0.0246
  346.0000      0.0241
  347.0000      0.0233
  348.0000      0.0233
  349.0000      0.0229
  350.0000      0.0228
  351.0000      0.0221
  352.0000      0.0216
  353.0000      0.0212
  354.0000      0.0211
  355.0000      0.0204
  356.0000      0.0203
  357.0000      0.0211
  358.0000      0.0192
  359.0000      0.0201
  360.0000      0.0202
  361.0000      0.0184
  362.0000      0.0191
  363.0000      0.0178
  364.0000      0.0168
  365.0000      0.0177
  366.0000      0.0174
  367.0000      0.0168
  368.0000      0.0166
  369.0000      0.0165
  370.0000      0.0150
  371.0000      0.0160
  372.0000      0.0152
  373.0000      0.0152
  374.0000      0.0154
  375.0000      0.0145
  376.0000      0.0145
  377.0000      0.0139
  378.0000      0.0144
  379.0000      0.0140
  380.0000      0.0144
  381.0000      0.0124
  382.0000      0.0126
  383.0000      0.0130
  384.0000      0.0124
  385.0000      0.0117
  386.0000      0.0125
  387.0000      0.0123
  388.0000      0.0107
  389.0000      0.0111
  390.0000      0.0113
  391.0000      0.0116
  392.0000      0.0106
  393.0000      0.0099
  394.0000      0.0101
  395.0000      0.0107
  396.0000      0.0095
  397.0000      0.0096
  398.0000      0.0100
  399.0000      0.0095
  400.0000      0.0090
  401.0000      0.0093
  402.0000      0.0088
  403.0000      0.0084
  404.0000      0.0087
  405.0000      0.0076
  406.0000      0.0082
  407.0000      0.0082
  408.0000      0.0078
  409.0000      0.0080
  410.0000      0.0075
  411.0000      0.0069
  412.0000      0.0074
  413.0000      0.0071
  414.0000      0.0069
  415.0000      0.0067
  416.0000      0.0067
  417.0000      0.0067
  418.0000      0.0064
  419.0000      0.0064
  420.0000      0.0062
  421.0000      0.0062
  422.0000      0.0062
  423.0000      0.0058
  424.0000      0.0058
  425.0000      0.0058
  426.0000      0.0056
  427.0000      0.0055
  428.0000      0.0054
  429.0000      0.0053
  430.0000      0.0052
  431.0000      0.0052
  432.0000      0.0050
  433.0000      0.0049
  434.0000      0.0049
  435.0000      0.0047
  436.0000      0.0047
  437.0000      0.0046
  438.0000      0.0045
  439.0000      0.0044
  440.0000      0.0043
  441.0000      0.0042
  442.0000      0.0042
  443.0000      0.0041
  444.0000      0.0040
  445.0000      0.0040
  446.0000      0.0039
  447.0000      0.0038
  448.0000      0.0038
  449.0000      0.0037
  450.0000      0.0036
  451.0000      0.0036
  452.0000      0.0034
  453.0000      0.0034
  454.0000      0.0033
  455.0000      0.0032
  456.0000      0.0032
  457.0000      0.0031
  458.0000      0.0031
  459.0000      0.0031
  460.0000      0.0030
  461.0000      0.0029
  462.0000      0.0029
  463.0000      0.0029
  464.0000      0.0029
  465.0000      0.0030
  466.0000      0.0029
  467.0000      0.0029
  468.0000      0.0029
  469.0000      0.0029
  470.0000      0.0029
  471.0000      0.0029
  472.0000      0.0028
  473.0000      0.0027
  474.0000      0.0027
  475.0000      0.0026
  476.0000      0.0026
  477.0000      0.0025
  478.0000      0.0025
  479.0000      0.0024
  480.0000      0.0024
  481.0000      0.0023
  482.0000      0.0023
  483.0000      0.0022
  484.0000      0.0022
  485.0000      0.0021
  486.0000      0.0021
  487.0000      0.0021
  488.0000      0.0021
  489.0000      0.0020
  490.0000      0.0020
  491.0000      0.0020
  492.0000      0.0019
  493.0000      0.0019
  494.0000      0.0018
  495.0000      0.0018
  496.0000      0.0018
  497.0000      0.0018
  498.0000      0.0017
  499.0000      0.0017
  500.0000      0.0017
  501.0000      0.0016
  502.0000      0.0016
  503.0000      0.0016
  504.0000      0.0015
  505.0000      0.0015
  506.0000      0.0015
  507.0000      0.0014
  508.0000      0.0014
  509.0000      0.0014
  510.0000      0.0013
  511.0000      0.0013
  512.0000      0.0013
  513.0000      0.0013
  514.0000      0.0013
  515.0000      0.0013
  516.0000      0.0012
  517.0000      0.0012
  518.0000      0.0012
  519.0000      0.0011
  520.0000      0.0011
  521.0000      0.0011
  522.0000      0.0011
  523.0000      0.0010
  524.0000      0.0010
  525.0000      0.0010
  526.0000      0.0010
  527.0000      0.0010
  528.0000      0.0010
  529.0000      0.0010
  530.0000      0.0009
  531.0000      0.0009
  532.0000      0.0009
  533.0000      0.0009
  534.0000      0.0008
  535.0000      0.0008
  536.0000      0.0008
  537.0000      0.0008
  538.0000      0.0008
  539.0000      0.0008
  540.0000      0.0008
  541.0000      0.0008
  542.0000      0.0008
  543.0000      0.0008
  544.0000      0.0008
  545.0000      0.0008
  546.0000      0.0008
  547.0000      0.0008
  548.0000      0.0008
  549.0000      0.0007
  550.0000      0.0007
  551.0000      0.0007
  552.0000      0.0007
  553.0000      0.0007
  554.0000      0.0007
  555.0000      0.0007
  556.0000      0.0006
  557.0000      0.0009
  558.0000      0.0009
  559.0000      0.0008
  560.0000      0.0008
  561.0000      0.0007
  562.0000      0.0008
  563.0000      0.0007
  564.0000      0.0006
  565.0000      0.0006
  566.0000      0.0006
  567.0000      0.0005
  568.0000      0.0005
  569.0000      0.0005
  570.0000      0.0005
  571.0000      0.0005
  572.0000      0.0005
  573.0000      0.0005
  574.0000      0.0005
  575.0000      0.0005
  576.0000      0.0005
  577.0000      0.0005
  578.0000      0.0004
  579.0000      0.0005
  580.0000      0.0004
  581.0000      0.0004
  582.0000      0.0004
  583.0000      0.0004
  584.0000      0.0004
  585.0000      0.0004
  586.0000      0.0004
  587.0000      0.0004
  588.0000      0.0004
  589.0000      0.0004
  590.0000      0.0004
  591.0000      0.0004
  592.0000      0.0003
  593.0000      0.0003
  594.0000      0.0003
  595.0000      0.0003
  596.0000      0.0003
  597.0000      0.0003
  598.0000      0.0002
  599.0000      0.0002
  600.0000      0.0002
  601.0000      0.0002
  602.0000      0.0002
  603.0000      0.0002
  604.0000      0.0002
  605.0000      0.0002
  606.0000      0.0002
  607.0000      0.0002
  608.0000      0.0002
  609.0000      0.0002
  610.0000      0.0002
  611.0000      0.0002
  612.0000      0.0001
  613.0000      0.0002
  614.0000      0.0002
  615.0000      0.0002
  616.0000      0.0002
  617.0000      0.0001
  618.0000      0.0001
  619.0000      0.0002
  620.0000      0.0002
  621.0000      0.0002
  622.0000      0.0002
  623.0000      0.0001
  624.0000      0.0002
  625.0000      0.0002
  626.0000      0.0002
  627.0000      0.0002
  628.0000      0.0002
  629.0000      0.0002
  630.0000      0.0002
  631.0000      0.0002
  632.0000      0.0002
  633.0000      0.0002
  634.0000      0.0002
  635.0000      0.0002
  636.0000      0.0002
  637.0000      0.0002
  638.0000      0.0002
  639.0000      0.0002
  640.0000      0.0002
  641.0000      0.0001
  642.0000      0.0002
  643.0000      0.0002
  644.0000      0.0002
  645.0000      0.0002
  646.0000      0.0002
  647.0000      0.0002
  648.0000      0.0002
  649.0000      0.0002
  650.0000      0.0002
  651.0000      0.0002
  652.0000      0.0002
  653.0000      0.0002
  654.0000      0.0002
  655.0000      0.0002
  656.0000      0.0002
  657.0000      0.0002
  658.0000      0.0003
  659.0000      0.0002
  660.0000      0.0003
  661.0000      0.0003
  662.0000      0.0003
  663.0000      0.0003
  664.0000      0.0004
  665.0000      0.0004
  666.0000      0.0004
  667.0000      0.0004
  668.0000      0.0004
  669.0000      0.0004
  670.0000      0.0004
  671.0000      0.0004
  672.0000      0.0004
  673.0000      0.0004
  674.0000      0.0004
  675.0000      0.0004
  676.0000      0.0004
  677.0000      0.0004
  678.0000      0.0004
  679.0000      0.0004
  680.0000      0.0004
  681.0000      0.0004
  682.0000      0.0004
  683.0000      0.0004
  684.0000      0.0004
  685.0000      0.0004
  686.0000      0.0004
  687.0000      0.0004
  688.0000      0.0004
  689.0000      0.0004
  690.0000      0.0003
  691.0000      0.0003
  692.0000      0.0003
  693.0000      0.0003
  694.0000      0.0003
  695.0000      0.0003
  696.0000      0.0002
  697.0000      0.0003
  698.0000      0.0003
  699.0000      0.0002
  700.0000      0.0002
  701.0000      0.0002
  702.0000      0.0002
  703.0000      0.0001
  704.0000      0.0001
  705.0000      0.0001
  706.0000      0.0001
  707.0000      0.0000
  708.0000      0.0001
  709.0000      0.0000
  710.0000      0.0000
  711.0000      0.0000
  712.0000      0.0000
  713.0000      0.0000
  714.0000     -0.0000
  715.0000     -0.0000
  716.0000     -0.0000
  717.0000     -0.0000
  718.0000     -0.0000
  719.0000     -0.0001
  720.0000     -0.0001
  721.0000     -0.0002
  722.0000     -0.0001
  723.0000     -0.0002
  724.0000     -0.0001
  725.0000     -0.0002
  726.0000     -0.0002
  727.0000     -0.0003
  728.0000     -0.0003
  729.0000     -0.0003
  730.0000     -0.0003
  731.0000     -0.0004
  732.0000     -0.0004
  733.0000     -0.0004
  734.0000     -0.0005
  735.0000     -0.0005
  736.0000     -0.0006
  737.0000     -0.0005
  738.0000     -0.0006
  739.0000     -0.0006
  740.0000     -0.0006
  741.0000     -0.0006
  742.0000     -0.0005
  743.0000     -0.0005
  744.0000     -0.0005
  745.0000     -0.0005
  746.0000     -0.0005
  747.0000     -0.0005
  748.0000     -0.0005
  749.0000     -0.0005
  750.0000     -0.0004
  751.0000     -0.0004
  752.0000     -0.0004
  753.0000     -0.0004
  754.0000     -0.0003
  755.0000     -0.0004
  756.0000     -0.0003
  757.0000     -0.0003
  758.0000     -0.0003
  759.0000     -0.0003
  760.0000     -0.0003
  761.0000     -0.0003
  762.0000     -0.0002
  763.0000     -0.0002
  764.0000     -0.0002
  765.0000     -0.0002
  766.0000     -0.0001
  767.0000     -0.0001
  768.0000     -0.0001
  769.0000     -0.0001
  770.0000     -0.0001
  771.0000     -0.0001
  772.0000      0.0000
  773.0000     -0.0000
  774.0000     -0.0000
  775.0000     -0.0000
  776.0000      0.0000
  777.0000     -0.0000
  778.0000      0.0001
  779.0000      0.0000
  780.0000     -0.0000
  781.0000     -0.0000
  782.0000     -0.0000
  783.0000      0.0001
  784.0000      0.0000
  785.0000      0.0000
  786.0000      0.0001
  787.0000      0.0001
  788.0000      0.0001
  789.0000      0.0001
  790.0000      0.0001
  791.0000      0.0000
  792.0000      0.0001
  793.0000     -0.0000
  794.0000      0.0001
  795.0000      0.0000
  796.0000      0.0001
  797.0000      0.0001
  798.0000      0.0001
  799.0000      0.0001
  800.0000     -0.0000
