Start Wavelength:    200.0000
End Wavelength:    800.0000
Read Mode:  ABS
Read Average:      0.1000
Nanometer Interval:      1.0000
Time:      0.0000

  200.0000      0.4146
  201.0000      0.3605
  202.0000      0.3367
  203.0000      0.3152
  204.0000      0.2959
  205.0000      0.2796
  206.0000      0.2668
  207.0000      0.2559
  208.0000      0.2452
  209.0000      0.2345
  210.0000      0.2256
  211.0000      0.2168
  212.0000      0.2084
  213.0000      0.1999
  214.0000      0.1918
  215.0000      0.1842
  216.0000      0.1776
  217.0000      0.1697
  218.0000      0.1630
  219.0000      0.1569
  220.0000      0.1502
  221.0000      0.1439
  222.0000      0.1388
  223.0000      0.1336
  224.0000      0.1285
  225.0000      0.1235
  226.0000      0.1196
  227.0000      0.1158
  228.0000      0.1122
  229.0000      0.1082
  230.0000      0.1052
  231.0000      0.1022
  232.0000      0.0997
  233.0000      0.0963
  234.0000      0.0940
  235.0000      0.0922
  236.0000      0.0900
  237.0000      0.0884
  238.0000      0.0861
  239.0000      0.0844
  240.0000      0.0833
  241.0000      0.0819
  242.0000      0.0804
  243.0000      0.0795
  244.0000      0.0785
  245.0000      0.0773
  246.0000      0.0767
  247.0000      0.0758
  248.0000      0.0750
  249.0000      0.0745
  250.0000      0.0735
  251.0000      0.0730
  252.0000      0.0727
  253.0000      0.0716
  254.0000      0.0711
  255.0000      0.0709
  256.0000      0.0703
  257.0000      0.0697
  258.0000      0.0692
  259.0000      0.0689
  260.0000      0.0681
  261.0000      0.0681
  262.0000      0.0667
  263.0000      0.0663
  264.0000      0.0658
  265.0000      0.0648
  266.0000      0.0641
  267.0000      0.0636
  268.0000      0.0625
  269.0000      0.0621
  270.0000      0.0614
  271.0000      0.0602
  272.0000      0.0592
  273.0000      0.0590
  274.0000      0.0578
  275.0000      0.0574
  276.0000      0.0562
  277.0000      0.0549
  278.0000      0.0540
  279.0000      0.0535
  280.0000      0.0519
  281.0000      0.0510
  282.0000      0.0503
  283.0000      0.0490
  284.0000      0.0484
  285.0000      0.0474
  286.0000      0.0459
  287.0000      0.0457
  288.0000      0.0448
  289.0000      0.0434
  290.0000      0.0422
  291.0000      0.0412
  292.0000      0.0407
  293.0000      0.0396
  294.0000      0.0388
  295.0000      0.0377
  296.0000      0.0368
  297.0000      0.0362
  298.0000      0.0354
  299.0000      0.0347
  300.0000      0.0337
  301.0000      0.0331
  302.0000      0.0325
  303.0000      0.0321
  304.0000      0.0310
  305.0000      0.0302
  306.0000      0.0299
  307.0000      0.0290
  308.0000      0.0293
  309.0000      0.0279
  310.0000      0.0275
  311.0000      0.0274
  312.0000      0.0266
  313.0000      0.0264
  314.0000      0.0257
  315.0000      0.0254
  316.0000      0.0246
  317.0000      0.0245
  318.0000      0.0241
  319.0000      0.0229
  320.0000      0.0232
  321.0000      0.0231
  322.0000      0.0208
  323.0000      0.0202
  324.0000      0.0199
  325.0000      0.0201
  326.0000      0.0189
  327.0000      0.0185
  328.0000      0.0187
  329.0000      0.0184
  330.0000      0.0179
  331.0000      0.0177
  332.0000      0.0171
  333.0000      0.0172
  334.0000      0.0171
  335.0000      0.0165
  336.0000      0.0165
  337.0000      0.0159
  338.0000      0.0159
  339.0000      0.0160
  340.0000      0.0160
  341.0000      0.0150
  342.0000      0.0152
  343.0000      0.0149
  344.0000      0.0146
  345.0000      0.0145
  346.0000      0.0141
  347.0000      0.0138
  348.0000      0.0141
  349.0000      0.0136
  350.0000      0.0133
  351.0000      0.0129
  352.0000      0.0128
  353.0000      0.0125
  354.0000      0.0128
  355.0000      0.0121
  356.0000      0.0122
  357.0000      0.0131
  358.0000      0.0126
  359.0000      0.0130
  360.0000      0.0127
  361.0000      0.0101
  362.0000      0.0128
  363.0000      0.0113
  364.0000      0.0098
  365.0000      0.0115
  366.0000      0.0108
  367.0000      0.0108
  368.0000      0.0116
  369.0000      0.0113
  370.0000      0.0089
  371.0000      0.0104
  372.0000      0.0100
  373.0000      0.0099
  374.0000      0.0102
  375.0000      0.0087
  376.0000      0.0088
  377.0000      0.0102
  378.0000      0.0096
  379.0000      0.0083
  380.0000      0.0088
  381.0000      0.0082
  382.0000      0.0085
  383.0000      0.0083
  384.0000      0.0073
  385.0000      0.0079
  386.0000      0.0079
  387.0000      0.0086
  388.0000      0.0066
  389.0000      0.0068
  390.0000      0.0072
  391.0000      0.0074
  392.0000      0.0069
  393.0000      0.0065
  394.0000      0.0067
  395.0000      0.0069
  396.0000      0.0068
  397.0000      0.0065
  398.0000      0.0062
  399.0000      0.0064
  400.0000      0.0063
  401.0000      0.0062
  402.0000      0.0055
  403.0000      0.0053
  404.0000      0.0058
  405.0000      0.0050
  406.0000      0.0054
  407.0000      0.0056
  408.0000      0.0049
  409.0000      0.0054
  410.0000      0.0055
  411.0000      0.0048
  412.0000      0.0046
  413.0000      0.0047
  414.0000      0.0048
  415.0000      0.0050
  416.0000      0.0044
  417.0000      0.0044
  418.0000      0.0043
  419.0000      0.0042
  420.0000      0.0041
  421.0000      0.0040
  422.0000      0.0041
  423.0000      0.0039
  424.0000      0.0039
  425.0000      0.0037
  426.0000      0.0036
  427.0000      0.0037
  428.0000      0.0035
  429.0000      0.0034
  430.0000      0.0034
  431.0000      0.0034
  432.0000      0.0033
  433.0000      0.0032
  434.0000      0.0032
  435.0000      0.0032
  436.0000      0.0032
  437.0000      0.0031
  438.0000      0.0029
  439.0000      0.0029
  440.0000      0.0029
  441.0000      0.0028
  442.0000      0.0027
  443.0000      0.0027
  444.0000      0.0026
  445.0000      0.0026
  446.0000      0.0026
  447.0000      0.0025
  448.0000      0.0025
  449.0000      0.0024
  450.0000      0.0023
  451.0000      0.0023
  452.0000      0.0022
  453.0000      0.0022
  454.0000      0.0022
  455.0000      0.0020
  456.0000      0.0020
  457.0000      0.0019
  458.0000      0.0019
  459.0000      0.0019
  460.0000      0.0019
  461.0000      0.0018
  462.0000      0.0018
  463.0000      0.0019
  464.0000      0.0019
  465.0000      0.0019
  466.0000      0.0019
  467.0000      0.0019
  468.0000      0.0019
  469.0000      0.0019
  470.0000      0.0019
  471.0000      0.0018
  472.0000      0.0018
  473.0000      0.0017
  474.0000      0.0017
  475.0000      0.0016
  476.0000      0.0016
  477.0000      0.0016
  478.0000      0.0016
  479.0000      0.0015
  480.0000      0.0014
  481.0000      0.0014
  482.0000      0.0014
  483.0000      0.0013
  484.0000      0.0013
  485.0000      0.0012
  486.0000      0.0012
  487.0000      0.0012
  488.0000      0.0012
  489.0000      0.0011
  490.0000      0.0011
  491.0000      0.0011
  492.0000      0.0011
  493.0000      0.0011
  494.0000      0.0010
  495.0000      0.0010
  496.0000      0.0010
  497.0000      0.0010
  498.0000      0.0009
  499.0000      0.0009
  500.0000      0.0009
  501.0000      0.0008
  502.0000      0.0008
  503.0000      0.0008
  504.0000      0.0008
  505.0000      0.0008
  506.0000      0.0008
  507.0000      0.0007
  508.0000      0.0007
  509.0000      0.0007
  510.0000      0.0007
  511.0000      0.0007
  512.0000      0.0006
  513.0000      0.0006
  514.0000      0.0006
  515.0000      0.0006
  516.0000      0.0005
  517.0000      0.0006
  518.0000      0.0005
  519.0000      0.0005
  520.0000      0.0005
  521.0000      0.0005
  522.0000      0.0005
  523.0000      0.0005
  524.0000      0.0005
  525.0000      0.0004
  526.0000      0.0005
  527.0000      0.0004
  528.0000      0.0004
  529.0000      0.0004
  530.0000      0.0003
  531.0000      0.0003
  532.0000      0.0003
  533.0000      0.0003
  534.0000      0.0003
  535.0000      0.0003
  536.0000      0.0002
  537.0000      0.0003
  538.0000      0.0002
  539.0000      0.0002
  540.0000      0.0002
  541.0000      0.0002
  542.0000      0.0002
  543.0000      0.0001
  544.0000      0.0002
  545.0000      0.0001
  546.0000      0.0002
  547.0000      0.0001
  548.0000      0.0001
  549.0000      0.0001
  550.0000      0.0001
  551.0000      0.0001
  552.0000      0.0000
  553.0000     -0.0000
  554.0000     -0.0000
  555.0000     -0.0000
  556.0000     -0.0001
  557.0000      0.0005
  558.0000      0.0004
  559.0000      0.0004
  560.0000      0.0003
  561.0000      0.0003
  562.0000      0.0003
  563.0000      0.0002
  564.0000      0.0002
  565.0000      0.0002
  566.0000      0.0002
  567.0000      0.0002
  568.0000      0.0001
  569.0000      0.0001
  570.0000      0.0001
  571.0000      0.0001
  572.0000      0.0001
  573.0000      0.0001
  574.0000      0.0001
  575.0000      0.0000
  576.0000      0.0000
  577.0000     -0.0000
  578.0000     -0.0000
  579.0000     -0.0000
  580.0000     -0.0000
  581.0000     -0.0000
  582.0000     -0.0001
  583.0000     -0.0001
  584.0000     -0.0001
  585.0000     -0.0000
  586.0000     -0.0001
  587.0000     -0.0001
  588.0000     -0.0001
  589.0000     -0.0001
  590.0000     -0.0001
  591.0000     -0.0001
  592.0000     -0.0001
  593.0000     -0.0001
  594.0000     -0.0002
  595.0000     -0.0002
  596.0000     -0.0002
  597.0000     -0.0002
  598.0000     -0.0002
  599.0000     -0.0002
  600.0000     -0.0002
  601.0000     -0.0003
  602.0000     -0.0003
  603.0000     -0.0002
  604.0000     -0.0002
  605.0000     -0.0002
  606.0000     -0.0003
  607.0000     -0.0003
  608.0000     -0.0002
  609.0000     -0.0003
  610.0000     -0.0002
  611.0000     -0.0003
  612.0000     -0.0003
  613.0000     -0.0003
  614.0000     -0.0003
  615.0000     -0.0003
  616.0000     -0.0003
  617.0000     -0.0003
  618.0000     -0.0003
  619.0000     -0.0003
  620.0000     -0.0003
  621.0000     -0.0003
  622.0000     -0.0002
  623.0000     -0.0003
  624.0000     -0.0002
  625.0000     -0.0002
  626.0000     -0.0003
  627.0000     -0.0002
  628.0000     -0.0002
  629.0000     -0.0002
  630.0000     -0.0002
  631.0000     -0.0002
  632.0000     -0.0002
  633.0000     -0.0002
  634.0000     -0.0002
  635.0000     -0.0002
  636.0000     -0.0002
  637.0000     -0.0002
  638.0000     -0.0002
  639.0000     -0.0002
  640.0000     -0.0002
  641.0000     -0.0002
  642.0000     -0.0002
  643.0000     -0.0002
  644.0000     -0.0002
  645.0000     -0.0001
  646.0000     -0.0001
  647.0000     -0.0001
  648.0000     -0.0001
  649.0000     -0.0001
  650.0000     -0.0001
  651.0000     -0.0001
  652.0000     -0.0001
  653.0000     -0.0001
  654.0000     -0.0001
  655.0000     -0.0001
  656.0000     -0.0001
  657.0000     -0.0001
  658.0000     -0.0001
  659.0000     -0.0001
  660.0000     -0.0001
  661.0000     -0.0001
  662.0000     -0.0001
  663.0000     -0.0001
  664.0000     -0.0001
  665.0000     -0.0001
  666.0000     -0.0001
  667.0000     -0.0001
  668.0000     -0.0001
  669.0000     -0.0001
  670.0000     -0.0001
  671.0000     -0.0001
  672.0000     -0.0001
  673.0000     -0.0001
  674.0000     -0.0001
  675.0000     -0.0001
  676.0000     -0.0001
  677.0000     -0.0001
  678.0000     -0.0001
  679.0000     -0.0001
  680.0000     -0.0001
  681.0000     -0.0001
  682.0000     -0.0001
  683.0000     -0.0001
  684.0000     -0.0001
  685.0000     -0.0001
  686.0000     -0.0001
  687.0000     -0.0001
  688.0000     -0.0001
  689.0000     -0.0001
  690.0000     -0.0001
  691.0000     -0.0001
  692.0000     -0.0001
  693.0000     -0.0001
  694.0000     -0.0001
  695.0000     -0.0001
  696.0000     -0.0001
  697.0000     -0.0001
  698.0000     -0.0001
  699.0000     -0.0001
  700.0000     -0.0001
  701.0000     -0.0001
  702.0000     -0.0001
  703.0000     -0.0001
  704.0000     -0.0001
  705.0000     -0.0001
  706.0000     -0.0002
  707.0000     -0.0002
  708.0000     -0.0002
  709.0000     -0.0002
  710.0000     -0.0002
  711.0000     -0.0002
  712.0000     -0.0002
  713.0000     -0.0002
  714.0000     -0.0003
  715.0000     -0.0002
  716.0000     -0.0002
  717.0000     -0.0003
  718.0000     -0.0003
  719.0000     -0.0003
  720.0000     -0.0003
  721.0000     -0.0003
  722.0000     -0.0003
  723.0000     -0.0003
  724.0000     -0.0003
  725.0000     -0.0004
  726.0000     -0.0003
  727.0000     -0.0004
  728.0000     -0.0004
  729.0000     -0.0005
  730.0000     -0.0005
  731.0000     -0.0005
  732.0000     -0.0006
  733.0000     -0.0005
  734.0000     -0.0006
  735.0000     -0.0006
  736.0000     -0.0008
  737.0000     -0.0007
  738.0000     -0.0008
  739.0000     -0.0008
  740.0000     -0.0008
  741.0000     -0.0008
  742.0000     -0.0008
  743.0000     -0.0008
  744.0000     -0.0007
  745.0000     -0.0007
  746.0000     -0.0007
  747.0000     -0.0007
  748.0000     -0.0006
  749.0000     -0.0007
  750.0000     -0.0007
  751.0000     -0.0006
  752.0000     -0.0006
  753.0000     -0.0006
  754.0000     -0.0006
  755.0000     -0.0006
  756.0000     -0.0006
  757.0000     -0.0006
  758.0000     -0.0006
  759.0000     -0.0006
  760.0000     -0.0006
  761.0000     -0.0005
  762.0000     -0.0005
  763.0000     -0.0005
  764.0000     -0.0005
  765.0000     -0.0005
  766.0000     -0.0004
  767.0000     -0.0005
  768.0000     -0.0004
  769.0000     -0.0005
  770.0000     -0.0005
  771.0000     -0.0004
  772.0000     -0.0004
  773.0000     -0.0004
  774.0000     -0.0003
  775.0000     -0.0004
  776.0000     -0.0004
  777.0000     -0.0004
  778.0000     -0.0003
  779.0000     -0.0003
  780.0000     -0.0004
  781.0000     -0.0004
  782.0000     -0.0004
  783.0000     -0.0003
  784.0000     -0.0003
  785.0000     -0.0003
  786.0000     -0.0004
  787.0000     -0.0003
  788.0000     -0.0003
  789.0000     -0.0003
  790.0000     -0.0004
  791.0000     -0.0003
  792.0000     -0.0003
  793.0000     -0.0004
  794.0000     -0.0004
  795.0000     -0.0004
  796.0000     -0.0003
  797.0000     -0.0003
  798.0000     -0.0004
  799.0000     -0.0004
  800.0000     -0.0005
