Start Wavelength:    200.0000
End Wavelength:    800.0000
Read Mode:  ABS
Read Average:      0.1000
Nanometer Interval:      1.0000
Time:      0.0000

  200.0000      0.4039
  201.0000      0.3645
  202.0000      0.3431
  203.0000      0.3249
  204.0000      0.3087
  205.0000      0.2955
  206.0000      0.2847
  207.0000      0.2752
  208.0000      0.2671
  209.0000      0.2588
  210.0000      0.2511
  211.0000      0.2435
  212.0000      0.2380
  213.0000      0.2322
  214.0000      0.2256
  215.0000      0.2200
  216.0000      0.2151
  217.0000      0.2100
  218.0000      0.2055
  219.0000      0.2008
  220.0000      0.1968
  221.0000      0.1920
  222.0000      0.1886
  223.0000      0.1848
  224.0000      0.1805
  225.0000      0.1775
  226.0000      0.1743
  227.0000      0.1709
  228.0000      0.1679
  229.0000      0.1645
  230.0000      0.1619
  231.0000      0.1591
  232.0000      0.1562
  233.0000      0.1534
  234.0000      0.1507
  235.0000      0.1487
  236.0000      0.1462
  237.0000      0.1436
  238.0000      0.1416
  239.0000      0.1395
  240.0000      0.1377
  241.0000      0.1352
  242.0000      0.1339
  243.0000      0.1323
  244.0000      0.1313
  245.0000      0.1294
  246.0000      0.1282
  247.0000      0.1271
  248.0000      0.1261
  249.0000      0.1248
  250.0000      0.1232
  251.0000      0.1226
  252.0000      0.1219
  253.0000      0.1203
  254.0000      0.1192
  255.0000      0.1185
  256.0000      0.1177
  257.0000      0.1166
  258.0000      0.1155
  259.0000      0.1152
  260.0000      0.1139
  261.0000      0.1131
  262.0000      0.1117
  263.0000      0.1107
  264.0000      0.1097
  265.0000      0.1086
  266.0000      0.1071
  267.0000      0.1058
  268.0000      0.1044
  269.0000      0.1039
  270.0000      0.1017
  271.0000      0.0998
  272.0000      0.0990
  273.0000      0.0972
  274.0000      0.0952
  275.0000      0.0944
  276.0000      0.0928
  277.0000      0.0917
  278.0000      0.0900
  279.0000      0.0882
  280.0000      0.0861
  281.0000      0.0851
  282.0000      0.0835
  283.0000      0.0815
  284.0000      0.0796
  285.0000      0.0786
  286.0000      0.0768
  287.0000      0.0757
  288.0000      0.0737
  289.0000      0.0716
  290.0000      0.0709
  291.0000      0.0693
  292.0000      0.0667
  293.0000      0.0657
  294.0000      0.0646
  295.0000      0.0629
  296.0000      0.0611
  297.0000      0.0602
  298.0000      0.0591
  299.0000      0.0579
  300.0000      0.0563
  301.0000      0.0551
  302.0000      0.0539
  303.0000      0.0531
  304.0000      0.0517
  305.0000      0.0502
  306.0000      0.0495
  307.0000      0.0485
  308.0000      0.0476
  309.0000      0.0464
  310.0000      0.0457
  311.0000      0.0455
  312.0000      0.0441
  313.0000      0.0432
  314.0000      0.0432
  315.0000      0.0419
  316.0000      0.0411
  317.0000      0.0402
  318.0000      0.0395
  319.0000      0.0388
  320.0000      0.0386
  321.0000      0.0379
  322.0000      0.0355
  323.0000      0.0346
  324.0000      0.0345
  325.0000      0.0337
  326.0000      0.0329
  327.0000      0.0319
  328.0000      0.0317
  329.0000      0.0315
  330.0000      0.0307
  331.0000      0.0304
  332.0000      0.0295
  333.0000      0.0292
  334.0000      0.0291
  335.0000      0.0283
  336.0000      0.0277
  337.0000      0.0273
  338.0000      0.0272
  339.0000      0.0266
  340.0000      0.0263
  341.0000      0.0255
  342.0000      0.0256
  343.0000      0.0251
  344.0000      0.0244
  345.0000      0.0244
  346.0000      0.0239
  347.0000      0.0232
  348.0000      0.0231
  349.0000      0.0223
  350.0000      0.0223
  351.0000      0.0221
  352.0000      0.0213
  353.0000      0.0206
  354.0000      0.0208
  355.0000      0.0203
  356.0000      0.0199
  357.0000      0.0208
  358.0000      0.0197
  359.0000      0.0190
  360.0000      0.0202
  361.0000      0.0171
  362.0000      0.0191
  363.0000      0.0176
  364.0000      0.0160
  365.0000      0.0183
  366.0000      0.0176
  367.0000      0.0161
  368.0000      0.0164
  369.0000      0.0167
  370.0000      0.0154
  371.0000      0.0160
  372.0000      0.0148
  373.0000      0.0152
  374.0000      0.0157
  375.0000      0.0139
  376.0000      0.0134
  377.0000      0.0145
  378.0000      0.0145
  379.0000      0.0132
  380.0000      0.0134
  381.0000      0.0124
  382.0000      0.0131
  383.0000      0.0126
  384.0000      0.0122
  385.0000      0.0120
  386.0000      0.0122
  387.0000      0.0115
  388.0000      0.0102
  389.0000      0.0113
  390.0000      0.0110
  391.0000      0.0110
  392.0000      0.0107
  393.0000      0.0104
  394.0000      0.0103
  395.0000      0.0103
  396.0000      0.0096
  397.0000      0.0091
  398.0000      0.0098
  399.0000      0.0095
  400.0000      0.0092
  401.0000      0.0089
  402.0000      0.0084
  403.0000      0.0088
  404.0000      0.0086
  405.0000      0.0077
  406.0000      0.0083
  407.0000      0.0089
  408.0000      0.0079
  409.0000      0.0075
  410.0000      0.0075
  411.0000      0.0074
  412.0000      0.0075
  413.0000      0.0071
  414.0000      0.0070
  415.0000      0.0070
  416.0000      0.0070
  417.0000      0.0068
  418.0000      0.0067
  419.0000      0.0066
  420.0000      0.0064
  421.0000      0.0063
  422.0000      0.0062
  423.0000      0.0060
  424.0000      0.0059
  425.0000      0.0058
  426.0000      0.0056
  427.0000      0.0055
  428.0000      0.0054
  429.0000      0.0053
  430.0000      0.0053
  431.0000      0.0052
  432.0000      0.0049
  433.0000      0.0049
  434.0000      0.0049
  435.0000      0.0048
  436.0000      0.0048
  437.0000      0.0046
  438.0000      0.0045
  439.0000      0.0044
  440.0000      0.0043
  441.0000      0.0043
  442.0000      0.0042
  443.0000      0.0041
  444.0000      0.0040
  445.0000      0.0040
  446.0000      0.0039
  447.0000      0.0038
  448.0000      0.0037
  449.0000      0.0037
  450.0000      0.0036
  451.0000      0.0035
  452.0000      0.0034
  453.0000      0.0033
  454.0000      0.0033
  455.0000      0.0032
  456.0000      0.0031
  457.0000      0.0031
  458.0000      0.0031
  459.0000      0.0031
  460.0000      0.0030
  461.0000      0.0029
  462.0000      0.0030
  463.0000      0.0031
  464.0000      0.0030
  465.0000      0.0030
  466.0000      0.0031
  467.0000      0.0030
  468.0000      0.0030
  469.0000      0.0030
  470.0000      0.0031
  471.0000      0.0030
  472.0000      0.0029
  473.0000      0.0028
  474.0000      0.0028
  475.0000      0.0027
  476.0000      0.0027
  477.0000      0.0026
  478.0000      0.0026
  479.0000      0.0026
  480.0000      0.0025
  481.0000      0.0024
  482.0000      0.0024
  483.0000      0.0024
  484.0000      0.0023
  485.0000      0.0022
  486.0000      0.0022
  487.0000      0.0021
  488.0000      0.0021
  489.0000      0.0020
  490.0000      0.0020
  491.0000      0.0020
  492.0000      0.0019
  493.0000      0.0019
  494.0000      0.0019
  495.0000      0.0018
  496.0000      0.0017
  497.0000      0.0017
  498.0000      0.0017
  499.0000      0.0016
  500.0000      0.0016
  501.0000      0.0015
  502.0000      0.0015
  503.0000      0.0014
  504.0000      0.0014
  505.0000      0.0013
  506.0000      0.0013
  507.0000      0.0013
  508.0000      0.0013
  509.0000      0.0013
  510.0000      0.0013
  511.0000      0.0013
  512.0000      0.0013
  513.0000      0.0013
  514.0000      0.0012
  515.0000      0.0013
  516.0000      0.0012
  517.0000      0.0012
  518.0000      0.0011
  519.0000      0.0011
  520.0000      0.0011
  521.0000      0.0011
  522.0000      0.0010
  523.0000      0.0010
  524.0000      0.0010
  525.0000      0.0010
  526.0000      0.0010
  527.0000      0.0010
  528.0000      0.0010
  529.0000      0.0010
  530.0000      0.0009
  531.0000      0.0009
  532.0000      0.0009
  533.0000      0.0009
  534.0000      0.0009
  535.0000      0.0008
  536.0000      0.0008
  537.0000      0.0008
  538.0000      0.0008
  539.0000      0.0008
  540.0000      0.0008
  541.0000      0.0007
  542.0000      0.0007
  543.0000      0.0007
  544.0000      0.0007
  545.0000      0.0006
  546.0000      0.0006
  547.0000      0.0006
  548.0000      0.0005
  549.0000      0.0005
  550.0000      0.0005
  551.0000      0.0005
  552.0000      0.0004
  553.0000      0.0004
  554.0000      0.0004
  555.0000      0.0004
  556.0000      0.0003
  557.0000      0.0007
  558.0000      0.0007
  559.0000      0.0006
  560.0000      0.0006
  561.0000      0.0006
  562.0000      0.0006
  563.0000      0.0006
  564.0000      0.0005
  565.0000      0.0005
  566.0000      0.0005
  567.0000      0.0004
  568.0000      0.0004
  569.0000      0.0004
  570.0000      0.0004
  571.0000      0.0004
  572.0000      0.0003
  573.0000      0.0003
  574.0000      0.0003
  575.0000      0.0003
  576.0000      0.0003
  577.0000      0.0003
  578.0000      0.0003
  579.0000      0.0003
  580.0000      0.0003
  581.0000      0.0003
  582.0000      0.0003
  583.0000      0.0002
  584.0000      0.0002
  585.0000      0.0002
  586.0000      0.0002
  587.0000      0.0002
  588.0000      0.0002
  589.0000      0.0002
  590.0000      0.0002
  591.0000      0.0002
  592.0000      0.0002
  593.0000      0.0002
  594.0000      0.0002
  595.0000      0.0001
  596.0000      0.0001
  597.0000      0.0001
  598.0000      0.0001
  599.0000      0.0001
  600.0000      0.0001
  601.0000      0.0000
  602.0000      0.0000
  603.0000      0.0001
  604.0000      0.0000
  605.0000      0.0001
  606.0000      0.0001
  607.0000      0.0001
  608.0000      0.0001
  609.0000      0.0001
  610.0000      0.0001
  611.0000      0.0001
  612.0000      0.0001
  613.0000      0.0001
  614.0000      0.0001
  615.0000      0.0001
  616.0000      0.0001
  617.0000      0.0001
  618.0000      0.0001
  619.0000      0.0001
  620.0000      0.0001
  621.0000      0.0001
  622.0000      0.0001
  623.0000      0.0001
  624.0000      0.0001
  625.0000      0.0001
  626.0000      0.0001
  627.0000      0.0001
  628.0000      0.0001
  629.0000      0.0001
  630.0000      0.0001
  631.0000      0.0001
  632.0000      0.0001
  633.0000      0.0001
  634.0000      0.0001
  635.0000      0.0001
  636.0000      0.0001
  637.0000      0.0001
  638.0000      0.0001
  639.0000      0.0001
  640.0000      0.0001
  641.0000      0.0001
  642.0000      0.0001
  643.0000      0.0001
  644.0000      0.0001
  645.0000      0.0001
  646.0000      0.0001
  647.0000      0.0001
  648.0000      0.0002
  649.0000      0.0001
  650.0000      0.0002
  651.0000      0.0002
  652.0000      0.0001
  653.0000      0.0002
  654.0000      0.0001
  655.0000      0.0001
  656.0000      0.0002
  657.0000      0.0002
  658.0000      0.0002
  659.0000      0.0002
  660.0000      0.0001
  661.0000      0.0001
  662.0000      0.0001
  663.0000      0.0001
  664.0000      0.0001
  665.0000      0.0001
  666.0000      0.0001
  667.0000      0.0000
  668.0000      0.0000
  669.0000      0.0000
  670.0000      0.0000
  671.0000      0.0000
  672.0000      0.0000
  673.0000      0.0000
  674.0000      0.0000
  675.0000      0.0001
  676.0000      0.0000
  677.0000      0.0000
  678.0000      0.0000
  679.0000     -0.0000
  680.0000      0.0000
  681.0000      0.0000
  682.0000      0.0001
  683.0000      0.0000
  684.0000      0.0001
  685.0000      0.0001
  686.0000      0.0001
  687.0000      0.0001
  688.0000      0.0001
  689.0000      0.0001
  690.0000      0.0001
  691.0000      0.0001
  692.0000      0.0001
  693.0000      0.0001
  694.0000      0.0002
  695.0000      0.0002
  696.0000      0.0002
  697.0000      0.0002
  698.0000      0.0002
  699.0000      0.0002
  700.0000      0.0002
  701.0000      0.0002
  702.0000      0.0002
  703.0000      0.0002
  704.0000      0.0001
  705.0000      0.0001
  706.0000      0.0001
  707.0000      0.0001
  708.0000      0.0000
  709.0000      0.0000
  710.0000      0.0000
  711.0000      0.0000
  712.0000     -0.0000
  713.0000     -0.0000
  714.0000     -0.0001
  715.0000     -0.0001
  716.0000     -0.0000
  717.0000     -0.0000
  718.0000     -0.0000
  719.0000     -0.0001
  720.0000     -0.0001
  721.0000     -0.0001
  722.0000     -0.0001
  723.0000     -0.0001
  724.0000     -0.0001
  725.0000     -0.0001
  726.0000     -0.0000
  727.0000     -0.0001
  728.0000     -0.0001
  729.0000     -0.0001
  730.0000     -0.0001
  731.0000     -0.0001
  732.0000     -0.0002
  733.0000     -0.0002
  734.0000     -0.0002
  735.0000     -0.0002
  736.0000     -0.0007
  737.0000     -0.0007
  738.0000     -0.0007
  739.0000     -0.0008
  740.0000     -0.0007
  741.0000     -0.0008
  742.0000     -0.0008
  743.0000     -0.0007
  744.0000     -0.0007
  745.0000     -0.0007
  746.0000     -0.0006
  747.0000     -0.0006
  748.0000     -0.0006
  749.0000     -0.0006
  750.0000     -0.0005
  751.0000     -0.0005
  752.0000     -0.0005
  753.0000     -0.0005
  754.0000     -0.0004
  755.0000     -0.0005
  756.0000     -0.0004
  757.0000     -0.0004
  758.0000     -0.0004
  759.0000     -0.0004
  760.0000     -0.0004
  761.0000     -0.0004
  762.0000     -0.0003
  763.0000     -0.0004
  764.0000     -0.0003
  765.0000     -0.0003
  766.0000     -0.0003
  767.0000     -0.0003
  768.0000     -0.0003
  769.0000     -0.0003
  770.0000     -0.0002
  771.0000     -0.0002
  772.0000     -0.0002
  773.0000     -0.0002
  774.0000     -0.0002
  775.0000     -0.0002
  776.0000     -0.0001
  777.0000     -0.0002
  778.0000     -0.0001
  779.0000     -0.0001
  780.0000     -0.0001
  781.0000     -0.0002
  782.0000     -0.0001
  783.0000     -0.0002
  784.0000     -0.0001
  785.0000     -0.0001
  786.0000     -0.0001
  787.0000     -0.0001
  788.0000     -0.0001
  789.0000     -0.0001
  790.0000     -0.0001
  791.0000     -0.0002
  792.0000     -0.0001
  793.0000     -0.0002
  794.0000     -0.0001
  795.0000     -0.0001
  796.0000     -0.0001
  797.0000     -0.0000
  798.0000     -0.0000
  799.0000     -0.0001
  800.0000     -0.0002
