Start Wavelength:    200.0000
End Wavelength:    800.0000
Read Mode:  ABS
Read Average:      0.1000
Nanometer Interval:      1.0000
Time:      0.0000

  200.0000      0.4408
  201.0000      0.3991
  202.0000      0.3789
  203.0000      0.3596
  204.0000      0.3439
  205.0000      0.3310
  206.0000      0.3200
  207.0000      0.3104
  208.0000      0.3011
  209.0000      0.2926
  210.0000      0.2858
  211.0000      0.2782
  212.0000      0.2722
  213.0000      0.2650
  214.0000      0.2592
  215.0000      0.2533
  216.0000      0.2491
  217.0000      0.2434
  218.0000      0.2381
  219.0000      0.2345
  220.0000      0.2299
  221.0000      0.2257
  222.0000      0.2216
  223.0000      0.2174
  224.0000      0.2137
  225.0000      0.2102
  226.0000      0.2067
  227.0000      0.2035
  228.0000      0.1997
  229.0000      0.1961
  230.0000      0.1928
  231.0000      0.1899
  232.0000      0.1868
  233.0000      0.1833
  234.0000      0.1805
  235.0000      0.1780
  236.0000      0.1753
  237.0000      0.1726
  238.0000      0.1702
  239.0000      0.1677
  240.0000      0.1659
  241.0000      0.1638
  242.0000      0.1615
  243.0000      0.1601
  244.0000      0.1585
  245.0000      0.1569
  246.0000      0.1560
  247.0000      0.1548
  248.0000      0.1534
  249.0000      0.1525
  250.0000      0.1513
  251.0000      0.1503
  252.0000      0.1499
  253.0000      0.1484
  254.0000      0.1472
  255.0000      0.1467
  256.0000      0.1458
  257.0000      0.1448
  258.0000      0.1439
  259.0000      0.1427
  260.0000      0.1415
  261.0000      0.1410
  262.0000      0.1397
  263.0000      0.1384
  264.0000      0.1371
  265.0000      0.1360
  266.0000      0.1346
  267.0000      0.1337
  268.0000      0.1323
  269.0000      0.1305
  270.0000      0.1290
  271.0000      0.1274
  272.0000      0.1259
  273.0000      0.1244
  274.0000      0.1219
  275.0000      0.1208
  276.0000      0.1196
  277.0000      0.1178
  278.0000      0.1162
  279.0000      0.1144
  280.0000      0.1123
  281.0000      0.1112
  282.0000      0.1100
  283.0000      0.1079
  284.0000      0.1061
  285.0000      0.1042
  286.0000      0.1023
  287.0000      0.1009
  288.0000      0.0993
  289.0000      0.0971
  290.0000      0.0954
  291.0000      0.0942
  292.0000      0.0925
  293.0000      0.0913
  294.0000      0.0894
  295.0000      0.0875
  296.0000      0.0860
  297.0000      0.0848
  298.0000      0.0835
  299.0000      0.0820
  300.0000      0.0804
  301.0000      0.0791
  302.0000      0.0782
  303.0000      0.0773
  304.0000      0.0760
  305.0000      0.0748
  306.0000      0.0738
  307.0000      0.0725
  308.0000      0.0719
  309.0000      0.0709
  310.0000      0.0696
  311.0000      0.0692
  312.0000      0.0677
  313.0000      0.0670
  314.0000      0.0663
  315.0000      0.0648
  316.0000      0.0633
  317.0000      0.0636
  318.0000      0.0626
  319.0000      0.0612
  320.0000      0.0609
  321.0000      0.0602
  322.0000      0.0576
  323.0000      0.0563
  324.0000      0.0559
  325.0000      0.0552
  326.0000      0.0544
  327.0000      0.0535
  328.0000      0.0532
  329.0000      0.0526
  330.0000      0.0519
  331.0000      0.0515
  332.0000      0.0508
  333.0000      0.0500
  334.0000      0.0497
  335.0000      0.0490
  336.0000      0.0488
  337.0000      0.0480
  338.0000      0.0475
  339.0000      0.0470
  340.0000      0.0466
  341.0000      0.0459
  342.0000      0.0460
  343.0000      0.0452
  344.0000      0.0443
  345.0000      0.0444
  346.0000      0.0441
  347.0000      0.0436
  348.0000      0.0433
  349.0000      0.0426
  350.0000      0.0424
  351.0000      0.0422
  352.0000      0.0416
  353.0000      0.0413
  354.0000      0.0407
  355.0000      0.0403
  356.0000      0.0401
  357.0000      0.0407
  358.0000      0.0395
  359.0000      0.0395
  360.0000      0.0408
  361.0000      0.0386
  362.0000      0.0387
  363.0000      0.0377
  364.0000      0.0354
  365.0000      0.0381
  366.0000      0.0372
  367.0000      0.0371
  368.0000      0.0375
  369.0000      0.0355
  370.0000      0.0350
  371.0000      0.0363
  372.0000      0.0357
  373.0000      0.0346
  374.0000      0.0343
  375.0000      0.0345
  376.0000      0.0338
  377.0000      0.0344
  378.0000      0.0333
  379.0000      0.0323
  380.0000      0.0334
  381.0000      0.0325
  382.0000      0.0324
  383.0000      0.0321
  384.0000      0.0319
  385.0000      0.0308
  386.0000      0.0314
  387.0000      0.0314
  388.0000      0.0303
  389.0000      0.0303
  390.0000      0.0293
  391.0000      0.0299
  392.0000      0.0295
  393.0000      0.0296
  394.0000      0.0288
  395.0000      0.0285
  396.0000      0.0287
  397.0000      0.0281
  398.0000      0.0285
  399.0000      0.0277
  400.0000      0.0276
  401.0000      0.0276
  402.0000      0.0269
  403.0000      0.0271
  404.0000      0.0267
  405.0000      0.0257
  406.0000      0.0264
  407.0000      0.0269
  408.0000      0.0260
  409.0000      0.0257
  410.0000      0.0253
  411.0000      0.0254
  412.0000      0.0254
  413.0000      0.0253
  414.0000      0.0253
  415.0000      0.0248
  416.0000      0.0251
  417.0000      0.0251
  418.0000      0.0248
  419.0000      0.0250
  420.0000      0.0247
  421.0000      0.0246
  422.0000      0.0247
  423.0000      0.0245
  424.0000      0.0244
  425.0000      0.0243
  426.0000      0.0241
  427.0000      0.0241
  428.0000      0.0239
  429.0000      0.0238
  430.0000      0.0238
  431.0000      0.0236
  432.0000      0.0236
  433.0000      0.0235
  434.0000      0.0235
  435.0000      0.0233
  436.0000      0.0232
  437.0000      0.0230
  438.0000      0.0229
  439.0000      0.0227
  440.0000      0.0226
  441.0000      0.0224
  442.0000      0.0222
  443.0000      0.0220
  444.0000      0.0218
  445.0000      0.0217
  446.0000      0.0215
  447.0000      0.0213
  448.0000      0.0211
  449.0000      0.0209
  450.0000      0.0208
  451.0000      0.0207
  452.0000      0.0205
  453.0000      0.0204
  454.0000      0.0203
  455.0000      0.0201
  456.0000      0.0200
  457.0000      0.0199
  458.0000      0.0198
  459.0000      0.0197
  460.0000      0.0196
  461.0000      0.0195
  462.0000      0.0195
  463.0000      0.0195
  464.0000      0.0195
  465.0000      0.0195
  466.0000      0.0193
  467.0000      0.0193
  468.0000      0.0193
  469.0000      0.0193
  470.0000      0.0193
  471.0000      0.0192
  472.0000      0.0192
  473.0000      0.0191
  474.0000      0.0191
  475.0000      0.0190
  476.0000      0.0190
  477.0000      0.0190
  478.0000      0.0189
  479.0000      0.0189
  480.0000      0.0188
  481.0000      0.0187
  482.0000      0.0187
  483.0000      0.0185
  484.0000      0.0184
  485.0000      0.0183
  486.0000      0.0182
  487.0000      0.0182
  488.0000      0.0182
  489.0000      0.0181
  490.0000      0.0181
  491.0000      0.0180
  492.0000      0.0179
  493.0000      0.0178
  494.0000      0.0177
  495.0000      0.0177
  496.0000      0.0175
  497.0000      0.0175
  498.0000      0.0174
  499.0000      0.0173
  500.0000      0.0172
  501.0000      0.0170
  502.0000      0.0168
  503.0000      0.0167
  504.0000      0.0166
  505.0000      0.0164
  506.0000      0.0162
  507.0000      0.0161
  508.0000      0.0161
  509.0000      0.0159
  510.0000      0.0158
  511.0000      0.0157
  512.0000      0.0156
  513.0000      0.0155
  514.0000      0.0153
  515.0000      0.0152
  516.0000      0.0151
  517.0000      0.0150
  518.0000      0.0149
  519.0000      0.0148
  520.0000      0.0148
  521.0000      0.0148
  522.0000      0.0147
  523.0000      0.0147
  524.0000      0.0147
  525.0000      0.0147
  526.0000      0.0147
  527.0000      0.0146
  528.0000      0.0146
  529.0000      0.0145
  530.0000      0.0145
  531.0000      0.0144
  532.0000      0.0143
  533.0000      0.0142
  534.0000      0.0141
  535.0000      0.0141
  536.0000      0.0140
  537.0000      0.0139
  538.0000      0.0139
  539.0000      0.0138
  540.0000      0.0138
  541.0000      0.0138
  542.0000      0.0136
  543.0000      0.0135
  544.0000      0.0135
  545.0000      0.0135
  546.0000      0.0134
  547.0000      0.0133
  548.0000      0.0132
  549.0000      0.0132
  550.0000      0.0131
  551.0000      0.0129
  552.0000      0.0129
  553.0000      0.0128
  554.0000      0.0128
  555.0000      0.0130
  556.0000      0.0130
  557.0000      0.0138
  558.0000      0.0138
  559.0000      0.0136
  560.0000      0.0136
  561.0000      0.0135
  562.0000      0.0134
  563.0000      0.0133
  564.0000      0.0133
  565.0000      0.0132
  566.0000      0.0132
  567.0000      0.0130
  568.0000      0.0129
  569.0000      0.0128
  570.0000      0.0127
  571.0000      0.0126
  572.0000      0.0125
  573.0000      0.0124
  574.0000      0.0124
  575.0000      0.0124
  576.0000      0.0124
  577.0000      0.0123
  578.0000      0.0122
  579.0000      0.0122
  580.0000      0.0121
  581.0000      0.0120
  582.0000      0.0119
  583.0000      0.0119
  584.0000      0.0118
  585.0000      0.0117
  586.0000      0.0117
  587.0000      0.0117
  588.0000      0.0116
  589.0000      0.0115
  590.0000      0.0115
  591.0000      0.0114
  592.0000      0.0114
  593.0000      0.0113
  594.0000      0.0112
  595.0000      0.0112
  596.0000      0.0112
  597.0000      0.0113
  598.0000      0.0113
  599.0000      0.0113
  600.0000      0.0113
  601.0000      0.0112
  602.0000      0.0112
  603.0000      0.0112
  604.0000      0.0112
  605.0000      0.0112
  606.0000      0.0112
  607.0000      0.0111
  608.0000      0.0111
  609.0000      0.0110
  610.0000      0.0111
  611.0000      0.0111
  612.0000      0.0111
  613.0000      0.0111
  614.0000      0.0111
  615.0000      0.0110
  616.0000      0.0110
  617.0000      0.0110
  618.0000      0.0110
  619.0000      0.0110
  620.0000      0.0109
  621.0000      0.0109
  622.0000      0.0109
  623.0000      0.0108
  624.0000      0.0109
  625.0000      0.0108
  626.0000      0.0108
  627.0000      0.0108
  628.0000      0.0109
  629.0000      0.0109
  630.0000      0.0110
  631.0000      0.0110
  632.0000      0.0111
  633.0000      0.0111
  634.0000      0.0111
  635.0000      0.0112
  636.0000      0.0112
  637.0000      0.0112
  638.0000      0.0112
  639.0000      0.0112
  640.0000      0.0112
  641.0000      0.0111
  642.0000      0.0111
  643.0000      0.0110
  644.0000      0.0110
  645.0000      0.0110
  646.0000      0.0110
  647.0000      0.0110
  648.0000      0.0111
  649.0000      0.0110
  650.0000      0.0111
  651.0000      0.0111
  652.0000      0.0111
  653.0000      0.0111
  654.0000      0.0112
  655.0000      0.0113
  656.0000      0.0114
  657.0000      0.0115
  658.0000      0.0115
  659.0000      0.0116
  660.0000      0.0117
  661.0000      0.0118
  662.0000      0.0118
  663.0000      0.0118
  664.0000      0.0119
  665.0000      0.0119
  666.0000      0.0120
  667.0000      0.0120
  668.0000      0.0120
  669.0000      0.0121
  670.0000      0.0121
  671.0000      0.0121
  672.0000      0.0121
  673.0000      0.0122
  674.0000      0.0122
  675.0000      0.0122
  676.0000      0.0123
  677.0000      0.0124
  678.0000      0.0124
  679.0000      0.0125
  680.0000      0.0126
  681.0000      0.0127
  682.0000      0.0127
  683.0000      0.0127
  684.0000      0.0128
  685.0000      0.0128
  686.0000      0.0128
  687.0000      0.0128
  688.0000      0.0128
  689.0000      0.0128
  690.0000      0.0128
  691.0000      0.0127
  692.0000      0.0128
  693.0000      0.0127
  694.0000      0.0127
  695.0000      0.0127
  696.0000      0.0126
  697.0000      0.0126
  698.0000      0.0125
  699.0000      0.0125
  700.0000      0.0125
  701.0000      0.0125
  702.0000      0.0124
  703.0000      0.0124
  704.0000      0.0123
  705.0000      0.0123
  706.0000      0.0122
  707.0000      0.0121
  708.0000      0.0120
  709.0000      0.0120
  710.0000      0.0120
  711.0000      0.0120
  712.0000      0.0119
  713.0000      0.0119
  714.0000      0.0118
  715.0000      0.0118
  716.0000      0.0117
  717.0000      0.0116
  718.0000      0.0115
  719.0000      0.0114
  720.0000      0.0114
  721.0000      0.0113
  722.0000      0.0112
  723.0000      0.0112
  724.0000      0.0112
  725.0000      0.0112
  726.0000      0.0112
  727.0000      0.0112
  728.0000      0.0112
  729.0000      0.0112
  730.0000      0.0112
  731.0000      0.0112
  732.0000      0.0110
  733.0000      0.0110
  734.0000      0.0110
  735.0000      0.0111
  736.0000      0.0083
  737.0000      0.0082
  738.0000      0.0082
  739.0000      0.0081
  740.0000      0.0082
  741.0000      0.0082
  742.0000      0.0082
  743.0000      0.0082
  744.0000      0.0083
  745.0000      0.0082
  746.0000      0.0082
  747.0000      0.0082
  748.0000      0.0083
  749.0000      0.0083
  750.0000      0.0083
  751.0000      0.0084
  752.0000      0.0084
  753.0000      0.0084
  754.0000      0.0085
  755.0000      0.0085
  756.0000      0.0085
  757.0000      0.0085
  758.0000      0.0085
  759.0000      0.0086
  760.0000      0.0086
  761.0000      0.0085
  762.0000      0.0086
  763.0000      0.0085
  764.0000      0.0085
  765.0000      0.0085
  766.0000      0.0084
  767.0000      0.0084
  768.0000      0.0083
  769.0000      0.0083
  770.0000      0.0083
  771.0000      0.0082
  772.0000      0.0083
  773.0000      0.0083
  774.0000      0.0082
  775.0000      0.0083
  776.0000      0.0083
  777.0000      0.0083
  778.0000      0.0084
  779.0000      0.0084
  780.0000      0.0084
  781.0000      0.0084
  782.0000      0.0085
  783.0000      0.0086
  784.0000      0.0086
  785.0000      0.0087
  786.0000      0.0087
  787.0000      0.0088
  788.0000      0.0088
  789.0000      0.0088
  790.0000      0.0088
  791.0000      0.0088
  792.0000      0.0089
  793.0000      0.0088
  794.0000      0.0089
  795.0000      0.0089
  796.0000      0.0089
  797.0000      0.0089
  798.0000      0.0089
  799.0000      0.0089
  800.0000      0.0088
