Start Wavelength:    200.0000
End Wavelength:    800.0000
Read Mode:  ABS
Read Average:      0.1000
Nanometer Interval:      1.0000
Time:      0.0000

  200.0000      1.0686
  201.0000      1.0236
  202.0000      1.0102
  203.0000      0.9843
  204.0000      0.9564
  205.0000      0.9322
  206.0000      0.9112
  207.0000      0.8815
  208.0000      0.8609
  209.0000      0.8285
  210.0000      0.7981
  211.0000      0.7693
  212.0000      0.7383
  213.0000      0.7008
  214.0000      0.6702
  215.0000      0.6357
  216.0000      0.6048
  217.0000      0.5696
  218.0000      0.5366
  219.0000      0.5076
  220.0000      0.4778
  221.0000      0.4469
  222.0000      0.4217
  223.0000      0.3970
  224.0000      0.3744
  225.0000      0.3522
  226.0000      0.3331
  227.0000      0.3170
  228.0000      0.3023
  229.0000      0.2872
  230.0000      0.2752
  231.0000      0.2647
  232.0000      0.2547
  233.0000      0.2457
  234.0000      0.2383
  235.0000      0.2323
  236.0000      0.2270
  237.0000      0.2212
  238.0000      0.2170
  239.0000      0.2137
  240.0000      0.2108
  241.0000      0.2085
  242.0000      0.2058
  243.0000      0.2034
  244.0000      0.2009
  245.0000      0.1985
  246.0000      0.1968
  247.0000      0.1946
  248.0000      0.1926
  249.0000      0.1916
  250.0000      0.1900
  251.0000      0.1885
  252.0000      0.1874
  253.0000      0.1861
  254.0000      0.1843
  255.0000      0.1834
  256.0000      0.1820
  257.0000      0.1803
  258.0000      0.1797
  259.0000      0.1780
  260.0000      0.1769
  261.0000      0.1757
  262.0000      0.1736
  263.0000      0.1726
  264.0000      0.1717
  265.0000      0.1697
  266.0000      0.1685
  267.0000      0.1667
  268.0000      0.1647
  269.0000      0.1636
  270.0000      0.1615
  271.0000      0.1601
  272.0000      0.1589
  273.0000      0.1568
  274.0000      0.1555
  275.0000      0.1532
  276.0000      0.1517
  277.0000      0.1504
  278.0000      0.1485
  279.0000      0.1468
  280.0000      0.1445
  281.0000      0.1429
  282.0000      0.1411
  283.0000      0.1396
  284.0000      0.1374
  285.0000      0.1360
  286.0000      0.1344
  287.0000      0.1324
  288.0000      0.1310
  289.0000      0.1290
  290.0000      0.1269
  291.0000      0.1254
  292.0000      0.1238
  293.0000      0.1216
  294.0000      0.1205
  295.0000      0.1187
  296.0000      0.1164
  297.0000      0.1158
  298.0000      0.1135
  299.0000      0.1122
  300.0000      0.1102
  301.0000      0.1082
  302.0000      0.1073
  303.0000      0.1054
  304.0000      0.1037
  305.0000      0.1026
  306.0000      0.1005
  307.0000      0.1003
  308.0000      0.0987
  309.0000      0.0971
  310.0000      0.0968
  311.0000      0.0959
  312.0000      0.0940
  313.0000      0.0933
  314.0000      0.0914
  315.0000      0.0903
  316.0000      0.0889
  317.0000      0.0874
  318.0000      0.0867
  319.0000      0.0852
  320.0000      0.0839
  321.0000      0.0842
  322.0000      0.0807
  323.0000      0.0800
  324.0000      0.0789
  325.0000      0.0780
  326.0000      0.0771
  327.0000      0.0762
  328.0000      0.0755
  329.0000      0.0743
  330.0000      0.0739
  331.0000      0.0731
  332.0000      0.0720
  333.0000      0.0715
  334.0000      0.0704
  335.0000      0.0696
  336.0000      0.0691
  337.0000      0.0683
  338.0000      0.0677
  339.0000      0.0676
  340.0000      0.0665
  341.0000      0.0659
  342.0000      0.0656
  343.0000      0.0645
  344.0000      0.0641
  345.0000      0.0632
  346.0000      0.0627
  347.0000      0.0619
  348.0000      0.0612
  349.0000      0.0609
  350.0000      0.0606
  351.0000      0.0596
  352.0000      0.0592
  353.0000      0.0588
  354.0000      0.0578
  355.0000      0.0579
  356.0000      0.0573
  357.0000      0.0556
  358.0000      0.0556
  359.0000      0.0562
  360.0000      0.0569
  361.0000      0.0565
  362.0000      0.0541
  363.0000      0.0561
  364.0000      0.0550
  365.0000      0.0536
  366.0000      0.0534
  367.0000      0.0521
  368.0000      0.0513
  369.0000      0.0524
  370.0000      0.0511
  371.0000      0.0509
  372.0000      0.0506
  373.0000      0.0494
  374.0000      0.0500
  375.0000      0.0486
  376.0000      0.0488
  377.0000      0.0480
  378.0000      0.0494
  379.0000      0.0476
  380.0000      0.0474
  381.0000      0.0476
  382.0000      0.0461
  383.0000      0.0466
  384.0000      0.0459
  385.0000      0.0456
  386.0000      0.0460
  387.0000      0.0453
  388.0000      0.0448
  389.0000      0.0449
  390.0000      0.0446
  391.0000      0.0444
  392.0000      0.0441
  393.0000      0.0430
  394.0000      0.0435
  395.0000      0.0430
  396.0000      0.0425
  397.0000      0.0423
  398.0000      0.0418
  399.0000      0.0412
  400.0000      0.0414
  401.0000      0.0405
  402.0000      0.0404
  403.0000      0.0405
  404.0000      0.0401
  405.0000      0.0395
  406.0000      0.0397
  407.0000      0.0392
  408.0000      0.0390
  409.0000      0.0385
  410.0000      0.0379
  411.0000      0.0384
  412.0000      0.0375
  413.0000      0.0374
  414.0000      0.0378
  415.0000      0.0375
  416.0000      0.0377
  417.0000      0.0374
  418.0000      0.0375
  419.0000      0.0373
  420.0000      0.0371
  421.0000      0.0371
  422.0000      0.0368
  423.0000      0.0366
  424.0000      0.0366
  425.0000      0.0364
  426.0000      0.0361
  427.0000      0.0361
  428.0000      0.0359
  429.0000      0.0357
  430.0000      0.0355
  431.0000      0.0353
  432.0000      0.0349
  433.0000      0.0348
  434.0000      0.0345
  435.0000      0.0342
  436.0000      0.0341
  437.0000      0.0340
  438.0000      0.0341
  439.0000      0.0340
  440.0000      0.0338
  441.0000      0.0337
  442.0000      0.0335
  443.0000      0.0330
  444.0000      0.0329
  445.0000      0.0326
  446.0000      0.0322
  447.0000      0.0319
  448.0000      0.0317
  449.0000      0.0315
  450.0000      0.0316
  451.0000      0.0314
  452.0000      0.0312
  453.0000      0.0311
  454.0000      0.0309
  455.0000      0.0307
  456.0000      0.0306
  457.0000      0.0305
  458.0000      0.0303
  459.0000      0.0301
  460.0000      0.0300
  461.0000      0.0300
  462.0000      0.0298
  463.0000      0.0296
  464.0000      0.0293
  465.0000      0.0292
  466.0000      0.0290
  467.0000      0.0289
  468.0000      0.0287
  469.0000      0.0284
  470.0000      0.0282
  471.0000      0.0280
  472.0000      0.0277
  473.0000      0.0275
  474.0000      0.0273
  475.0000      0.0270
  476.0000      0.0267
  477.0000      0.0265
  478.0000      0.0263
  479.0000      0.0262
  480.0000      0.0260
  481.0000      0.0258
  482.0000      0.0256
  483.0000      0.0255
  484.0000      0.0253
  485.0000      0.0251
  486.0000      0.0250
  487.0000      0.0248
  488.0000      0.0246
  489.0000      0.0244
  490.0000      0.0241
  491.0000      0.0240
  492.0000      0.0238
  493.0000      0.0235
  494.0000      0.0234
  495.0000      0.0232
  496.0000      0.0231
  497.0000      0.0230
  498.0000      0.0230
  499.0000      0.0230
  500.0000      0.0230
  501.0000      0.0229
  502.0000      0.0229
  503.0000      0.0229
  504.0000      0.0229
  505.0000      0.0228
  506.0000      0.0229
  507.0000      0.0229
  508.0000      0.0229
  509.0000      0.0229
  510.0000      0.0229
  511.0000      0.0229
  512.0000      0.0228
  513.0000      0.0229
  514.0000      0.0228
  515.0000      0.0229
  516.0000      0.0230
  517.0000      0.0230
  518.0000      0.0231
  519.0000      0.0231
  520.0000      0.0232
  521.0000      0.0233
  522.0000      0.0233
  523.0000      0.0232
  524.0000      0.0231
  525.0000      0.0229
  526.0000      0.0228
  527.0000      0.0228
  528.0000      0.0229
  529.0000      0.0229
  530.0000      0.0230
  531.0000      0.0229
  532.0000      0.0229
  533.0000      0.0229
  534.0000      0.0229
  535.0000      0.0229
  536.0000      0.0229
  537.0000      0.0229
  538.0000      0.0229
  539.0000      0.0228
  540.0000      0.0228
  541.0000      0.0227
  542.0000      0.0226
  543.0000      0.0225
  544.0000      0.0225
  545.0000      0.0224
  546.0000      0.0223
  547.0000      0.0222
  548.0000      0.0221
  549.0000      0.0221
  550.0000      0.0220
  551.0000      0.0220
  552.0000      0.0219
  553.0000      0.0220
  554.0000      0.0220
  555.0000      0.0219
  556.0000      0.0218
  557.0000      0.0208
  558.0000      0.0206
  559.0000      0.0206
  560.0000      0.0205
  561.0000      0.0203
  562.0000      0.0200
  563.0000      0.0198
  564.0000      0.0197
  565.0000      0.0196
  566.0000      0.0196
  567.0000      0.0196
  568.0000      0.0196
  569.0000      0.0196
  570.0000      0.0196
  571.0000      0.0197
  572.0000      0.0198
  573.0000      0.0198
  574.0000      0.0198
  575.0000      0.0198
  576.0000      0.0198
  577.0000      0.0198
  578.0000      0.0199
  579.0000      0.0199
  580.0000      0.0199
  581.0000      0.0199
  582.0000      0.0198
  583.0000      0.0198
  584.0000      0.0198
  585.0000      0.0199
  586.0000      0.0199
  587.0000      0.0199
  588.0000      0.0198
  589.0000      0.0198
  590.0000      0.0198
  591.0000      0.0198
  592.0000      0.0197
  593.0000      0.0195
  594.0000      0.0194
  595.0000      0.0194
  596.0000      0.0194
  597.0000      0.0192
  598.0000      0.0191
  599.0000      0.0190
  600.0000      0.0188
  601.0000      0.0188
  602.0000      0.0188
  603.0000      0.0188
  604.0000      0.0188
  605.0000      0.0189
  606.0000      0.0190
  607.0000      0.0191
  608.0000      0.0192
  609.0000      0.0194
  610.0000      0.0194
  611.0000      0.0195
  612.0000      0.0195
  613.0000      0.0194
  614.0000      0.0193
  615.0000      0.0194
  616.0000      0.0193
  617.0000      0.0191
  618.0000      0.0190
  619.0000      0.0189
  620.0000      0.0189
  621.0000      0.0188
  622.0000      0.0187
  623.0000      0.0187
  624.0000      0.0186
  625.0000      0.0186
  626.0000      0.0185
  627.0000      0.0185
  628.0000      0.0184
  629.0000      0.0183
  630.0000      0.0182
  631.0000      0.0181
  632.0000      0.0180
  633.0000      0.0179
  634.0000      0.0178
  635.0000      0.0177
  636.0000      0.0177
  637.0000      0.0176
  638.0000      0.0176
  639.0000      0.0177
  640.0000      0.0177
  641.0000      0.0177
  642.0000      0.0178
  643.0000      0.0179
  644.0000      0.0178
  645.0000      0.0178
  646.0000      0.0179
  647.0000      0.0179
  648.0000      0.0179
  649.0000      0.0179
  650.0000      0.0180
  651.0000      0.0180
  652.0000      0.0180
  653.0000      0.0180
  654.0000      0.0179
  655.0000      0.0180
  656.0000      0.0179
  657.0000      0.0179
  658.0000      0.0179
  659.0000      0.0178
  660.0000      0.0178
  661.0000      0.0177
  662.0000      0.0177
  663.0000      0.0177
  664.0000      0.0176
  665.0000      0.0175
  666.0000      0.0175
  667.0000      0.0174
  668.0000      0.0173
  669.0000      0.0172
  670.0000      0.0172
  671.0000      0.0171
  672.0000      0.0170
  673.0000      0.0170
  674.0000      0.0170
  675.0000      0.0169
  676.0000      0.0169
  677.0000      0.0168
  678.0000      0.0168
  679.0000      0.0167
  680.0000      0.0167
  681.0000      0.0166
  682.0000      0.0167
  683.0000      0.0168
  684.0000      0.0171
  685.0000      0.0174
  686.0000      0.0176
  687.0000      0.0178
  688.0000      0.0181
  689.0000      0.0183
  690.0000      0.0186
  691.0000      0.0187
  692.0000      0.0189
  693.0000      0.0191
  694.0000      0.0190
  695.0000      0.0191
  696.0000      0.0193
  697.0000      0.0194
  698.0000      0.0194
  699.0000      0.0197
  700.0000      0.0198
  701.0000      0.0198
  702.0000      0.0199
  703.0000      0.0197
  704.0000      0.0196
  705.0000      0.0197
  706.0000      0.0195
  707.0000      0.0193
  708.0000      0.0191
  709.0000      0.0187
  710.0000      0.0184
  711.0000      0.0178
  712.0000      0.0175
  713.0000      0.0172
  714.0000      0.0169
  715.0000      0.0167
  716.0000      0.0165
  717.0000      0.0164
  718.0000      0.0164
  719.0000      0.0163
  720.0000      0.0163
  721.0000      0.0162
  722.0000      0.0162
  723.0000      0.0160
  724.0000      0.0159
  725.0000      0.0159
  726.0000      0.0158
  727.0000      0.0156
  728.0000      0.0154
  729.0000      0.0152
  730.0000      0.0151
  731.0000      0.0149
  732.0000      0.0148
  733.0000      0.0147
  734.0000      0.0146
  735.0000      0.0145
  736.0000      0.0164
  737.0000      0.0164
  738.0000      0.0164
  739.0000      0.0166
  740.0000      0.0167
  741.0000      0.0169
  742.0000      0.0169
  743.0000      0.0170
  744.0000      0.0170
  745.0000      0.0168
  746.0000      0.0166
  747.0000      0.0165
  748.0000      0.0163
  749.0000      0.0160
  750.0000      0.0157
  751.0000      0.0155
  752.0000      0.0154
  753.0000      0.0153
  754.0000      0.0152
  755.0000      0.0151
  756.0000      0.0151
  757.0000      0.0150
  758.0000      0.0149
  759.0000      0.0149
  760.0000      0.0148
  761.0000      0.0148
  762.0000      0.0147
  763.0000      0.0147
  764.0000      0.0146
  765.0000      0.0146
  766.0000      0.0146
  767.0000      0.0145
  768.0000      0.0145
  769.0000      0.0145
  770.0000      0.0146
  771.0000      0.0146
  772.0000      0.0146
  773.0000      0.0146
  774.0000      0.0146
  775.0000      0.0146
  776.0000      0.0145
  777.0000      0.0145
  778.0000      0.0145
  779.0000      0.0145
  780.0000      0.0145
  781.0000      0.0146
  782.0000      0.0146
  783.0000      0.0147
  784.0000      0.0147
  785.0000      0.0148
  786.0000      0.0148
  787.0000      0.0147
  788.0000      0.0147
  789.0000      0.0147
  790.0000      0.0146
  791.0000      0.0147
  792.0000      0.0147
  793.0000      0.0147
  794.0000      0.0146
  795.0000      0.0145
  796.0000      0.0144
  797.0000      0.0143
  798.0000      0.0143
  799.0000      0.0142
  800.0000      0.0141
