Start Wavelength:    200.0000
End Wavelength:    800.0000
Read Mode:  ABS
Read Average:      0.1000
Nanometer Interval:      1.0000
Time:      0.0000

  200.0000      1.5490
  201.0000      1.5177
  202.0000      1.4976
  203.0000      1.4643
  204.0000      1.4377
  205.0000      1.4049
  206.0000      1.3793
  207.0000      1.3435
  208.0000      1.3007
  209.0000      1.2499
  210.0000      1.2020
  211.0000      1.1566
  212.0000      1.0995
  213.0000      1.0388
  214.0000      0.9797
  215.0000      0.9232
  216.0000      0.8668
  217.0000      0.8019
  218.0000      0.7433
  219.0000      0.6903
  220.0000      0.6381
  221.0000      0.5839
  222.0000      0.5377
  223.0000      0.4940
  224.0000      0.4556
  225.0000      0.4167
  226.0000      0.3847
  227.0000      0.3554
  228.0000      0.3306
  229.0000      0.3058
  230.0000      0.2856
  231.0000      0.2685
  232.0000      0.2531
  233.0000      0.2388
  234.0000      0.2279
  235.0000      0.2179
  236.0000      0.2093
  237.0000      0.2015
  238.0000      0.1957
  239.0000      0.1905
  240.0000      0.1863
  241.0000      0.1818
  242.0000      0.1784
  243.0000      0.1758
  244.0000      0.1725
  245.0000      0.1701
  246.0000      0.1683
  247.0000      0.1664
  248.0000      0.1649
  249.0000      0.1635
  250.0000      0.1618
  251.0000      0.1608
  252.0000      0.1595
  253.0000      0.1583
  254.0000      0.1567
  255.0000      0.1556
  256.0000      0.1544
  257.0000      0.1533
  258.0000      0.1526
  259.0000      0.1509
  260.0000      0.1497
  261.0000      0.1489
  262.0000      0.1479
  263.0000      0.1465
  264.0000      0.1454
  265.0000      0.1442
  266.0000      0.1426
  267.0000      0.1413
  268.0000      0.1395
  269.0000      0.1377
  270.0000      0.1364
  271.0000      0.1353
  272.0000      0.1334
  273.0000      0.1322
  274.0000      0.1304
  275.0000      0.1288
  276.0000      0.1280
  277.0000      0.1261
  278.0000      0.1246
  279.0000      0.1225
  280.0000      0.1212
  281.0000      0.1195
  282.0000      0.1177
  283.0000      0.1162
  284.0000      0.1143
  285.0000      0.1131
  286.0000      0.1117
  287.0000      0.1096
  288.0000      0.1078
  289.0000      0.1069
  290.0000      0.1049
  291.0000      0.1030
  292.0000      0.1014
  293.0000      0.0999
  294.0000      0.0989
  295.0000      0.0977
  296.0000      0.0956
  297.0000      0.0947
  298.0000      0.0934
  299.0000      0.0925
  300.0000      0.0908
  301.0000      0.0897
  302.0000      0.0885
  303.0000      0.0874
  304.0000      0.0859
  305.0000      0.0852
  306.0000      0.0838
  307.0000      0.0829
  308.0000      0.0821
  309.0000      0.0809
  310.0000      0.0804
  311.0000      0.0795
  312.0000      0.0780
  313.0000      0.0777
  314.0000      0.0763
  315.0000      0.0754
  316.0000      0.0741
  317.0000      0.0733
  318.0000      0.0732
  319.0000      0.0714
  320.0000      0.0711
  321.0000      0.0707
  322.0000      0.0677
  323.0000      0.0669
  324.0000      0.0665
  325.0000      0.0659
  326.0000      0.0649
  327.0000      0.0642
  328.0000      0.0632
  329.0000      0.0623
  330.0000      0.0621
  331.0000      0.0610
  332.0000      0.0598
  333.0000      0.0588
  334.0000      0.0587
  335.0000      0.0583
  336.0000      0.0574
  337.0000      0.0565
  338.0000      0.0560
  339.0000      0.0558
  340.0000      0.0552
  341.0000      0.0545
  342.0000      0.0540
  343.0000      0.0534
  344.0000      0.0530
  345.0000      0.0524
  346.0000      0.0523
  347.0000      0.0516
  348.0000      0.0516
  349.0000      0.0513
  350.0000      0.0507
  351.0000      0.0504
  352.0000      0.0502
  353.0000      0.0500
  354.0000      0.0494
  355.0000      0.0489
  356.0000      0.0484
  357.0000      0.0479
  358.0000      0.0476
  359.0000      0.0479
  360.0000      0.0473
  361.0000      0.0462
  362.0000      0.0470
  363.0000      0.0478
  364.0000      0.0464
  365.0000      0.0463
  366.0000      0.0453
  367.0000      0.0439
  368.0000      0.0445
  369.0000      0.0446
  370.0000      0.0429
  371.0000      0.0419
  372.0000      0.0426
  373.0000      0.0426
  374.0000      0.0426
  375.0000      0.0408
  376.0000      0.0408
  377.0000      0.0408
  378.0000      0.0411
  379.0000      0.0405
  380.0000      0.0399
  381.0000      0.0393
  382.0000      0.0386
  383.0000      0.0390
  384.0000      0.0379
  385.0000      0.0371
  386.0000      0.0377
  387.0000      0.0372
  388.0000      0.0369
  389.0000      0.0374
  390.0000      0.0362
  391.0000      0.0364
  392.0000      0.0366
  393.0000      0.0357
  394.0000      0.0352
  395.0000      0.0352
  396.0000      0.0344
  397.0000      0.0343
  398.0000      0.0342
  399.0000      0.0337
  400.0000      0.0335
  401.0000      0.0329
  402.0000      0.0332
  403.0000      0.0331
  404.0000      0.0335
  405.0000      0.0330
  406.0000      0.0327
  407.0000      0.0328
  408.0000      0.0330
  409.0000      0.0325
  410.0000      0.0315
  411.0000      0.0320
  412.0000      0.0320
  413.0000      0.0320
  414.0000      0.0319
  415.0000      0.0315
  416.0000      0.0321
  417.0000      0.0318
  418.0000      0.0318
  419.0000      0.0316
  420.0000      0.0316
  421.0000      0.0315
  422.0000      0.0315
  423.0000      0.0312
  424.0000      0.0311
  425.0000      0.0310
  426.0000      0.0309
  427.0000      0.0308
  428.0000      0.0307
  429.0000      0.0306
  430.0000      0.0305
  431.0000      0.0305
  432.0000      0.0304
  433.0000      0.0303
  434.0000      0.0302
  435.0000      0.0300
  436.0000      0.0298
  437.0000      0.0296
  438.0000      0.0294
  439.0000      0.0291
  440.0000      0.0289
  441.0000      0.0288
  442.0000      0.0287
  443.0000      0.0285
  444.0000      0.0283
  445.0000      0.0280
  446.0000      0.0278
  447.0000      0.0276
  448.0000      0.0272
  449.0000      0.0269
  450.0000      0.0265
  451.0000      0.0261
  452.0000      0.0258
  453.0000      0.0255
  454.0000      0.0252
  455.0000      0.0250
  456.0000      0.0249
  457.0000      0.0249
  458.0000      0.0249
  459.0000      0.0248
  460.0000      0.0247
  461.0000      0.0248
  462.0000      0.0247
  463.0000      0.0247
  464.0000      0.0247
  465.0000      0.0247
  466.0000      0.0247
  467.0000      0.0247
  468.0000      0.0246
  469.0000      0.0245
  470.0000      0.0244
  471.0000      0.0242
  472.0000      0.0241
  473.0000      0.0239
  474.0000      0.0238
  475.0000      0.0236
  476.0000      0.0235
  477.0000      0.0234
  478.0000      0.0233
  479.0000      0.0232
  480.0000      0.0232
  481.0000      0.0231
  482.0000      0.0230
  483.0000      0.0229
  484.0000      0.0228
  485.0000      0.0226
  486.0000      0.0226
  487.0000      0.0225
  488.0000      0.0223
  489.0000      0.0222
  490.0000      0.0221
  491.0000      0.0220
  492.0000      0.0218
  493.0000      0.0217
  494.0000      0.0216
  495.0000      0.0215
  496.0000      0.0214
  497.0000      0.0213
  498.0000      0.0211
  499.0000      0.0209
  500.0000      0.0207
  501.0000      0.0206
  502.0000      0.0204
  503.0000      0.0203
  504.0000      0.0202
  505.0000      0.0201
  506.0000      0.0199
  507.0000      0.0198
  508.0000      0.0197
  509.0000      0.0196
  510.0000      0.0194
  511.0000      0.0193
  512.0000      0.0191
  513.0000      0.0189
  514.0000      0.0188
  515.0000      0.0187
  516.0000      0.0186
  517.0000      0.0185
  518.0000      0.0184
  519.0000      0.0183
  520.0000      0.0183
  521.0000      0.0184
  522.0000      0.0183
  523.0000      0.0182
  524.0000      0.0182
  525.0000      0.0182
  526.0000      0.0181
  527.0000      0.0181
  528.0000      0.0181
  529.0000      0.0181
  530.0000      0.0180
  531.0000      0.0181
  532.0000      0.0181
  533.0000      0.0180
  534.0000      0.0180
  535.0000      0.0180
  536.0000      0.0179
  537.0000      0.0178
  538.0000      0.0178
  539.0000      0.0178
  540.0000      0.0178
  541.0000      0.0178
  542.0000      0.0179
  543.0000      0.0178
  544.0000      0.0179
  545.0000      0.0178
  546.0000      0.0178
  547.0000      0.0177
  548.0000      0.0176
  549.0000      0.0176
  550.0000      0.0175
  551.0000      0.0174
  552.0000      0.0173
  553.0000      0.0173
  554.0000      0.0172
  555.0000      0.0172
  556.0000      0.0171
  557.0000      0.0170
  558.0000      0.0169
  559.0000      0.0169
  560.0000      0.0168
  561.0000      0.0166
  562.0000      0.0165
  563.0000      0.0163
  564.0000      0.0162
  565.0000      0.0161
  566.0000      0.0160
  567.0000      0.0159
  568.0000      0.0158
  569.0000      0.0158
  570.0000      0.0159
  571.0000      0.0159
  572.0000      0.0160
  573.0000      0.0160
  574.0000      0.0160
  575.0000      0.0160
  576.0000      0.0160
  577.0000      0.0160
  578.0000      0.0160
  579.0000      0.0160
  580.0000      0.0161
  581.0000      0.0161
  582.0000      0.0161
  583.0000      0.0161
  584.0000      0.0161
  585.0000      0.0161
  586.0000      0.0161
  587.0000      0.0160
  588.0000      0.0159
  589.0000      0.0158
  590.0000      0.0157
  591.0000      0.0157
  592.0000      0.0156
  593.0000      0.0154
  594.0000      0.0154
  595.0000      0.0154
  596.0000      0.0156
  597.0000      0.0157
  598.0000      0.0156
  599.0000      0.0156
  600.0000      0.0155
  601.0000      0.0155
  602.0000      0.0154
  603.0000      0.0153
  604.0000      0.0152
  605.0000      0.0152
  606.0000      0.0151
  607.0000      0.0151
  608.0000      0.0151
  609.0000      0.0152
  610.0000      0.0152
  611.0000      0.0152
  612.0000      0.0152
  613.0000      0.0152
  614.0000      0.0152
  615.0000      0.0152
  616.0000      0.0152
  617.0000      0.0152
  618.0000      0.0151
  619.0000      0.0150
  620.0000      0.0150
  621.0000      0.0149
  622.0000      0.0149
  623.0000      0.0148
  624.0000      0.0148
  625.0000      0.0148
  626.0000      0.0147
  627.0000      0.0147
  628.0000      0.0148
  629.0000      0.0148
  630.0000      0.0148
  631.0000      0.0147
  632.0000      0.0147
  633.0000      0.0147
  634.0000      0.0146
  635.0000      0.0146
  636.0000      0.0146
  637.0000      0.0146
  638.0000      0.0146
  639.0000      0.0147
  640.0000      0.0147
  641.0000      0.0146
  642.0000      0.0146
  643.0000      0.0145
  644.0000      0.0145
  645.0000      0.0144
  646.0000      0.0145
  647.0000      0.0144
  648.0000      0.0144
  649.0000      0.0144
  650.0000      0.0143
  651.0000      0.0143
  652.0000      0.0142
  653.0000      0.0141
  654.0000      0.0141
  655.0000      0.0141
  656.0000      0.0140
  657.0000      0.0140
  658.0000      0.0139
  659.0000      0.0139
  660.0000      0.0139
  661.0000      0.0139
  662.0000      0.0139
  663.0000      0.0139
  664.0000      0.0139
  665.0000      0.0139
  666.0000      0.0139
  667.0000      0.0138
  668.0000      0.0138
  669.0000      0.0137
  670.0000      0.0137
  671.0000      0.0137
  672.0000      0.0137
  673.0000      0.0136
  674.0000      0.0136
  675.0000      0.0135
  676.0000      0.0135
  677.0000      0.0136
  678.0000      0.0136
  679.0000      0.0136
  680.0000      0.0137
  681.0000      0.0138
  682.0000      0.0139
  683.0000      0.0139
  684.0000      0.0139
  685.0000      0.0139
  686.0000      0.0138
  687.0000      0.0138
  688.0000      0.0138
  689.0000      0.0138
  690.0000      0.0138
  691.0000      0.0138
  692.0000      0.0138
  693.0000      0.0137
  694.0000      0.0137
  695.0000      0.0136
  696.0000      0.0135
  697.0000      0.0134
  698.0000      0.0132
  699.0000      0.0131
  700.0000      0.0129
  701.0000      0.0128
  702.0000      0.0127
  703.0000      0.0126
  704.0000      0.0126
  705.0000      0.0126
  706.0000      0.0125
  707.0000      0.0124
  708.0000      0.0124
  709.0000      0.0123
  710.0000      0.0123
  711.0000      0.0123
  712.0000      0.0123
  713.0000      0.0123
  714.0000      0.0123
  715.0000      0.0122
  716.0000      0.0122
  717.0000      0.0122
  718.0000      0.0121
  719.0000      0.0121
  720.0000      0.0120
  721.0000      0.0119
  722.0000      0.0118
  723.0000      0.0118
  724.0000      0.0117
  725.0000      0.0117
  726.0000      0.0116
  727.0000      0.0116
  728.0000      0.0116
  729.0000      0.0116
  730.0000      0.0116
  731.0000      0.0115
  732.0000      0.0115
  733.0000      0.0115
  734.0000      0.0115
  735.0000      0.0116
  736.0000      0.0121
  737.0000      0.0120
  738.0000      0.0118
  739.0000      0.0118
  740.0000      0.0118
  741.0000      0.0117
  742.0000      0.0117
  743.0000      0.0117
  744.0000      0.0117
  745.0000      0.0117
  746.0000      0.0117
  747.0000      0.0117
  748.0000      0.0117
  749.0000      0.0116
  750.0000      0.0116
  751.0000      0.0116
  752.0000      0.0115
  753.0000      0.0115
  754.0000      0.0115
  755.0000      0.0115
  756.0000      0.0115
  757.0000      0.0116
  758.0000      0.0115
  759.0000      0.0115
  760.0000      0.0116
  761.0000      0.0117
  762.0000      0.0117
  763.0000      0.0117
  764.0000      0.0116
  765.0000      0.0116
  766.0000      0.0116
  767.0000      0.0116
  768.0000      0.0116
  769.0000      0.0116
  770.0000      0.0116
  771.0000      0.0115
  772.0000      0.0114
  773.0000      0.0114
  774.0000      0.0113
  775.0000      0.0112
  776.0000      0.0111
  777.0000      0.0111
  778.0000      0.0111
  779.0000      0.0110
  780.0000      0.0110
  781.0000      0.0109
  782.0000      0.0109
  783.0000      0.0109
  784.0000      0.0108
  785.0000      0.0108
  786.0000      0.0108
  787.0000      0.0108
  788.0000      0.0107
  789.0000      0.0106
  790.0000      0.0106
  791.0000      0.0106
  792.0000      0.0106
  793.0000      0.0106
  794.0000      0.0106
  795.0000      0.0106
  796.0000      0.0105
  797.0000      0.0105
  798.0000      0.0105
  799.0000      0.0106
  800.0000      0.0106
