Start Wavelength:    200.0000
End Wavelength:    800.0000
Read Mode:  ABS
Read Average:      0.1000
Nanometer Interval:      1.0000
Time:      0.0000

  200.0000      2.5855
  201.0000      2.8561
  202.0000      2.6914
  203.0000      2.7286
  204.0000      3.0686
  205.0000      2.8609
  206.0000      3.1333
  207.0000      2.9184
  208.0000      2.6754
  209.0000      2.7365
  210.0000      2.6334
  211.0000      2.6821
  212.0000      2.4790
  213.0000      2.5159
  214.0000      2.3559
  215.0000      2.2643
  216.0000      2.1087
  217.0000      1.9257
  218.0000      1.7706
  219.0000      1.6103
  220.0000      1.4664
  221.0000      1.2980
  222.0000      1.1712
  223.0000      1.0357
  224.0000      0.9162
  225.0000      0.7987
  226.0000      0.7001
  227.0000      0.6136
  228.0000      0.5370
  229.0000      0.4637
  230.0000      0.4048
  231.0000      0.3562
  232.0000      0.3130
  233.0000      0.2732
  234.0000      0.2433
  235.0000      0.2173
  236.0000      0.1967
  237.0000      0.1771
  238.0000      0.1629
  239.0000      0.1512
  240.0000      0.1417
  241.0000      0.1329
  242.0000      0.1263
  243.0000      0.1213
  244.0000      0.1168
  245.0000      0.1133
  246.0000      0.1105
  247.0000      0.1083
  248.0000      0.1064
  249.0000      0.1051
  250.0000      0.1038
  251.0000      0.1031
  252.0000      0.1024
  253.0000      0.1010
  254.0000      0.1004
  255.0000      0.0992
  256.0000      0.0988
  257.0000      0.0982
  258.0000      0.0977
  259.0000      0.0972
  260.0000      0.0963
  261.0000      0.0964
  262.0000      0.0952
  263.0000      0.0949
  264.0000      0.0947
  265.0000      0.0935
  266.0000      0.0931
  267.0000      0.0922
  268.0000      0.0916
  269.0000      0.0908
  270.0000      0.0906
  271.0000      0.0902
  272.0000      0.0897
  273.0000      0.0890
  274.0000      0.0882
  275.0000      0.0878
  276.0000      0.0873
  277.0000      0.0871
  278.0000      0.0860
  279.0000      0.0854
  280.0000      0.0842
  281.0000      0.0834
  282.0000      0.0834
  283.0000      0.0820
  284.0000      0.0818
  285.0000      0.0811
  286.0000      0.0803
  287.0000      0.0797
  288.0000      0.0790
  289.0000      0.0780
  290.0000      0.0775
  291.0000      0.0769
  292.0000      0.0762
  293.0000      0.0754
  294.0000      0.0750
  295.0000      0.0743
  296.0000      0.0734
  297.0000      0.0732
  298.0000      0.0729
  299.0000      0.0717
  300.0000      0.0719
  301.0000      0.0710
  302.0000      0.0700
  303.0000      0.0698
  304.0000      0.0684
  305.0000      0.0684
  306.0000      0.0674
  307.0000      0.0679
  308.0000      0.0672
  309.0000      0.0666
  310.0000      0.0662
  311.0000      0.0656
  312.0000      0.0653
  313.0000      0.0645
  314.0000      0.0644
  315.0000      0.0633
  316.0000      0.0631
  317.0000      0.0627
  318.0000      0.0622
  319.0000      0.0618
  320.0000      0.0611
  321.0000      0.0610
  322.0000      0.0578
  323.0000      0.0574
  324.0000      0.0568
  325.0000      0.0561
  326.0000      0.0558
  327.0000      0.0552
  328.0000      0.0551
  329.0000      0.0541
  330.0000      0.0538
  331.0000      0.0536
  332.0000      0.0529
  333.0000      0.0523
  334.0000      0.0522
  335.0000      0.0526
  336.0000      0.0514
  337.0000      0.0520
  338.0000      0.0514
  339.0000      0.0512
  340.0000      0.0509
  341.0000      0.0504
  342.0000      0.0503
  343.0000      0.0496
  344.0000      0.0495
  345.0000      0.0493
  346.0000      0.0489
  347.0000      0.0485
  348.0000      0.0481
  349.0000      0.0481
  350.0000      0.0473
  351.0000      0.0476
  352.0000      0.0474
  353.0000      0.0472
  354.0000      0.0465
  355.0000      0.0463
  356.0000      0.0462
  357.0000      0.0471
  358.0000      0.0449
  359.0000      0.0465
  360.0000      0.0454
  361.0000      0.0462
  362.0000      0.0458
  363.0000      0.0470
  364.0000      0.0458
  365.0000      0.0453
  366.0000      0.0460
  367.0000      0.0441
  368.0000      0.0447
  369.0000      0.0448
  370.0000      0.0435
  371.0000      0.0440
  372.0000      0.0431
  373.0000      0.0440
  374.0000      0.0438
  375.0000      0.0435
  376.0000      0.0432
  377.0000      0.0430
  378.0000      0.0435
  379.0000      0.0431
  380.0000      0.0428
  381.0000      0.0421
  382.0000      0.0418
  383.0000      0.0413
  384.0000      0.0417
  385.0000      0.0415
  386.0000      0.0415
  387.0000      0.0413
  388.0000      0.0407
  389.0000      0.0416
  390.0000      0.0406
  391.0000      0.0405
  392.0000      0.0408
  393.0000      0.0399
  394.0000      0.0403
  395.0000      0.0398
  396.0000      0.0399
  397.0000      0.0390
  398.0000      0.0394
  399.0000      0.0387
  400.0000      0.0384
  401.0000      0.0383
  402.0000      0.0378
  403.0000      0.0383
  404.0000      0.0377
  405.0000      0.0379
  406.0000      0.0378
  407.0000      0.0373
  408.0000      0.0370
  409.0000      0.0363
  410.0000      0.0363
  411.0000      0.0363
  412.0000      0.0356
  413.0000      0.0357
  414.0000      0.0358
  415.0000      0.0358
  416.0000      0.0348
  417.0000      0.0346
  418.0000      0.0346
  419.0000      0.0347
  420.0000      0.0349
  421.0000      0.0351
  422.0000      0.0352
  423.0000      0.0352
  424.0000      0.0352
  425.0000      0.0353
  426.0000      0.0353
  427.0000      0.0352
  428.0000      0.0353
  429.0000      0.0352
  430.0000      0.0351
  431.0000      0.0349
  432.0000      0.0347
  433.0000      0.0346
  434.0000      0.0343
  435.0000      0.0341
  436.0000      0.0340
  437.0000      0.0337
  438.0000      0.0335
  439.0000      0.0332
  440.0000      0.0329
  441.0000      0.0328
  442.0000      0.0325
  443.0000      0.0322
  444.0000      0.0319
  445.0000      0.0317
  446.0000      0.0314
  447.0000      0.0311
  448.0000      0.0309
  449.0000      0.0306
  450.0000      0.0303
  451.0000      0.0300
  452.0000      0.0299
  453.0000      0.0298
  454.0000      0.0297
  455.0000      0.0296
  456.0000      0.0294
  457.0000      0.0295
  458.0000      0.0293
  459.0000      0.0292
  460.0000      0.0291
  461.0000      0.0292
  462.0000      0.0291
  463.0000      0.0291
  464.0000      0.0291
  465.0000      0.0292
  466.0000      0.0293
  467.0000      0.0293
  468.0000      0.0292
  469.0000      0.0292
  470.0000      0.0291
  471.0000      0.0292
  472.0000      0.0291
  473.0000      0.0291
  474.0000      0.0290
  475.0000      0.0289
  476.0000      0.0288
  477.0000      0.0287
  478.0000      0.0286
  479.0000      0.0286
  480.0000      0.0285
  481.0000      0.0285
  482.0000      0.0284
  483.0000      0.0284
  484.0000      0.0283
  485.0000      0.0281
  486.0000      0.0281
  487.0000      0.0281
  488.0000      0.0281
  489.0000      0.0281
  490.0000      0.0282
  491.0000      0.0281
  492.0000      0.0280
  493.0000      0.0279
  494.0000      0.0278
  495.0000      0.0277
  496.0000      0.0275
  497.0000      0.0273
  498.0000      0.0273
  499.0000      0.0272
  500.0000      0.0271
  501.0000      0.0270
  502.0000      0.0270
  503.0000      0.0268
  504.0000      0.0266
  505.0000      0.0264
  506.0000      0.0263
  507.0000      0.0263
  508.0000      0.0261
  509.0000      0.0260
  510.0000      0.0258
  511.0000      0.0256
  512.0000      0.0253
  513.0000      0.0251
  514.0000      0.0250
  515.0000      0.0249
  516.0000      0.0248
  517.0000      0.0248
  518.0000      0.0247
  519.0000      0.0246
  520.0000      0.0246
  521.0000      0.0245
  522.0000      0.0244
  523.0000      0.0243
  524.0000      0.0243
  525.0000      0.0242
  526.0000      0.0242
  527.0000      0.0242
  528.0000      0.0241
  529.0000      0.0240
  530.0000      0.0239
  531.0000      0.0238
  532.0000      0.0238
  533.0000      0.0238
  534.0000      0.0239
  535.0000      0.0239
  536.0000      0.0238
  537.0000      0.0237
  538.0000      0.0236
  539.0000      0.0235
  540.0000      0.0236
  541.0000      0.0237
  542.0000      0.0239
  543.0000      0.0241
  544.0000      0.0243
  545.0000      0.0245
  546.0000      0.0247
  547.0000      0.0248
  548.0000      0.0248
  549.0000      0.0247
  550.0000      0.0248
  551.0000      0.0249
  552.0000      0.0250
  553.0000      0.0251
  554.0000      0.0253
  555.0000      0.0255
  556.0000      0.0255
  557.0000      0.0273
  558.0000      0.0274
  559.0000      0.0276
  560.0000      0.0275
  561.0000      0.0275
  562.0000      0.0276
  563.0000      0.0276
  564.0000      0.0276
  565.0000      0.0275
  566.0000      0.0275
  567.0000      0.0273
  568.0000      0.0271
  569.0000      0.0267
  570.0000      0.0263
  571.0000      0.0261
  572.0000      0.0259
  573.0000      0.0257
  574.0000      0.0256
  575.0000      0.0257
  576.0000      0.0257
  577.0000      0.0257
  578.0000      0.0257
  579.0000      0.0258
  580.0000      0.0258
  581.0000      0.0259
  582.0000      0.0257
  583.0000      0.0255
  584.0000      0.0253
  585.0000      0.0251
  586.0000      0.0249
  587.0000      0.0248
  588.0000      0.0247
  589.0000      0.0245
  590.0000      0.0242
  591.0000      0.0241
  592.0000      0.0240
  593.0000      0.0240
  594.0000      0.0240
  595.0000      0.0239
  596.0000      0.0239
  597.0000      0.0239
  598.0000      0.0239
  599.0000      0.0239
  600.0000      0.0239
  601.0000      0.0239
  602.0000      0.0238
  603.0000      0.0240
  604.0000      0.0241
  605.0000      0.0241
  606.0000      0.0241
  607.0000      0.0240
  608.0000      0.0238
  609.0000      0.0237
  610.0000      0.0235
  611.0000      0.0236
  612.0000      0.0236
  613.0000      0.0237
  614.0000      0.0238
  615.0000      0.0237
  616.0000      0.0237
  617.0000      0.0237
  618.0000      0.0236
  619.0000      0.0235
  620.0000      0.0235
  621.0000      0.0232
  622.0000      0.0230
  623.0000      0.0227
  624.0000      0.0226
  625.0000      0.0226
  626.0000      0.0225
  627.0000      0.0226
  628.0000      0.0226
  629.0000      0.0226
  630.0000      0.0225
  631.0000      0.0225
  632.0000      0.0224
  633.0000      0.0225
  634.0000      0.0223
  635.0000      0.0222
  636.0000      0.0221
  637.0000      0.0220
  638.0000      0.0219
  639.0000      0.0219
  640.0000      0.0217
  641.0000      0.0216
  642.0000      0.0213
  643.0000      0.0212
  644.0000      0.0210
  645.0000      0.0209
  646.0000      0.0208
  647.0000      0.0208
  648.0000      0.0207
  649.0000      0.0206
  650.0000      0.0204
  651.0000      0.0203
  652.0000      0.0201
  653.0000      0.0200
  654.0000      0.0198
  655.0000      0.0197
  656.0000      0.0196
  657.0000      0.0196
  658.0000      0.0196
  659.0000      0.0197
  660.0000      0.0198
  661.0000      0.0200
  662.0000      0.0200
  663.0000      0.0200
  664.0000      0.0200
  665.0000      0.0200
  666.0000      0.0200
  667.0000      0.0199
  668.0000      0.0199
  669.0000      0.0199
  670.0000      0.0200
  671.0000      0.0200
  672.0000      0.0200
  673.0000      0.0201
  674.0000      0.0201
  675.0000      0.0202
  676.0000      0.0202
  677.0000      0.0201
  678.0000      0.0200
  679.0000      0.0200
  680.0000      0.0200
  681.0000      0.0200
  682.0000      0.0201
  683.0000      0.0201
  684.0000      0.0201
  685.0000      0.0202
  686.0000      0.0202
  687.0000      0.0202
  688.0000      0.0203
  689.0000      0.0203
  690.0000      0.0202
  691.0000      0.0202
  692.0000      0.0201
  693.0000      0.0200
  694.0000      0.0200
  695.0000      0.0199
  696.0000      0.0197
  697.0000      0.0197
  698.0000      0.0196
  699.0000      0.0196
  700.0000      0.0197
  701.0000      0.0196
  702.0000      0.0196
  703.0000      0.0196
  704.0000      0.0196
  705.0000      0.0196
  706.0000      0.0196
  707.0000      0.0196
  708.0000      0.0196
  709.0000      0.0193
  710.0000      0.0191
  711.0000      0.0190
  712.0000      0.0190
  713.0000      0.0190
  714.0000      0.0189
  715.0000      0.0189
  716.0000      0.0188
  717.0000      0.0189
  718.0000      0.0189
  719.0000      0.0187
  720.0000      0.0187
  721.0000      0.0187
  722.0000      0.0186
  723.0000      0.0186
  724.0000      0.0186
  725.0000      0.0185
  726.0000      0.0184
  727.0000      0.0183
  728.0000      0.0182
  729.0000      0.0182
  730.0000      0.0182
  731.0000      0.0181
  732.0000      0.0182
  733.0000      0.0181
  734.0000      0.0183
  735.0000      0.0184
  736.0000      0.0188
  737.0000      0.0187
  738.0000      0.0185
  739.0000      0.0183
  740.0000      0.0183
  741.0000      0.0181
  742.0000      0.0180
  743.0000      0.0179
  744.0000      0.0179
  745.0000      0.0178
  746.0000      0.0177
  747.0000      0.0176
  748.0000      0.0175
  749.0000      0.0174
  750.0000      0.0174
  751.0000      0.0173
  752.0000      0.0173
  753.0000      0.0174
  754.0000      0.0174
  755.0000      0.0174
  756.0000      0.0176
  757.0000      0.0176
  758.0000      0.0177
  759.0000      0.0179
  760.0000      0.0180
  761.0000      0.0182
  762.0000      0.0182
  763.0000      0.0183
  764.0000      0.0183
  765.0000      0.0183
  766.0000      0.0184
  767.0000      0.0183
  768.0000      0.0183
  769.0000      0.0183
  770.0000      0.0183
  771.0000      0.0183
  772.0000      0.0183
  773.0000      0.0182
  774.0000      0.0182
  775.0000      0.0181
  776.0000      0.0181
  777.0000      0.0181
  778.0000      0.0180
  779.0000      0.0181
  780.0000      0.0180
  781.0000      0.0180
  782.0000      0.0180
  783.0000      0.0180
  784.0000      0.0179
  785.0000      0.0179
  786.0000      0.0179
  787.0000      0.0178
  788.0000      0.0178
  789.0000      0.0178
  790.0000      0.0177
  791.0000      0.0177
  792.0000      0.0177
  793.0000      0.0176
  794.0000      0.0175
  795.0000      0.0174
  796.0000      0.0173
  797.0000      0.0173
  798.0000      0.0173
  799.0000      0.0172
  800.0000      0.0172
