Start Wavelength:    200.0000
End Wavelength:    800.0000
Read Mode:  ABS
Read Average:      0.1000
Nanometer Interval:      1.0000
Time:      0.0000

  200.0000      0.8964
  201.0000      0.8399
  202.0000      0.8092
  203.0000      0.7853
  204.0000      0.7558
  205.0000      0.7337
  206.0000      0.7121
  207.0000      0.6920
  208.0000      0.6707
  209.0000      0.6449
  210.0000      0.6245
  211.0000      0.5998
  212.0000      0.5775
  213.0000      0.5500
  214.0000      0.5252
  215.0000      0.5010
  216.0000      0.4776
  217.0000      0.4505
  218.0000      0.4273
  219.0000      0.4053
  220.0000      0.3832
  221.0000      0.3614
  222.0000      0.3421
  223.0000      0.3248
  224.0000      0.3084
  225.0000      0.2924
  226.0000      0.2776
  227.0000      0.2660
  228.0000      0.2548
  229.0000      0.2435
  230.0000      0.2347
  231.0000      0.2270
  232.0000      0.2193
  233.0000      0.2123
  234.0000      0.2066
  235.0000      0.2015
  236.0000      0.1972
  237.0000      0.1925
  238.0000      0.1890
  239.0000      0.1860
  240.0000      0.1834
  241.0000      0.1804
  242.0000      0.1786
  243.0000      0.1763
  244.0000      0.1745
  245.0000      0.1729
  246.0000      0.1716
  247.0000      0.1700
  248.0000      0.1688
  249.0000      0.1682
  250.0000      0.1670
  251.0000      0.1666
  252.0000      0.1656
  253.0000      0.1651
  254.0000      0.1636
  255.0000      0.1628
  256.0000      0.1614
  257.0000      0.1607
  258.0000      0.1595
  259.0000      0.1588
  260.0000      0.1577
  261.0000      0.1566
  262.0000      0.1555
  263.0000      0.1545
  264.0000      0.1538
  265.0000      0.1524
  266.0000      0.1514
  267.0000      0.1500
  268.0000      0.1489
  269.0000      0.1473
  270.0000      0.1462
  271.0000      0.1444
  272.0000      0.1436
  273.0000      0.1418
  274.0000      0.1404
  275.0000      0.1391
  276.0000      0.1378
  277.0000      0.1363
  278.0000      0.1349
  279.0000      0.1334
  280.0000      0.1316
  281.0000      0.1301
  282.0000      0.1288
  283.0000      0.1271
  284.0000      0.1248
  285.0000      0.1241
  286.0000      0.1224
  287.0000      0.1213
  288.0000      0.1189
  289.0000      0.1175
  290.0000      0.1158
  291.0000      0.1140
  292.0000      0.1123
  293.0000      0.1111
  294.0000      0.1095
  295.0000      0.1081
  296.0000      0.1064
  297.0000      0.1054
  298.0000      0.1039
  299.0000      0.1023
  300.0000      0.1014
  301.0000      0.0997
  302.0000      0.0985
  303.0000      0.0967
  304.0000      0.0958
  305.0000      0.0943
  306.0000      0.0932
  307.0000      0.0922
  308.0000      0.0909
  309.0000      0.0903
  310.0000      0.0893
  311.0000      0.0888
  312.0000      0.0872
  313.0000      0.0865
  314.0000      0.0852
  315.0000      0.0846
  316.0000      0.0828
  317.0000      0.0826
  318.0000      0.0813
  319.0000      0.0807
  320.0000      0.0803
  321.0000      0.0794
  322.0000      0.0808
  323.0000      0.0807
  324.0000      0.0797
  325.0000      0.0790
  326.0000      0.0780
  327.0000      0.0781
  328.0000      0.0769
  329.0000      0.0769
  330.0000      0.0761
  331.0000      0.0760
  332.0000      0.0746
  333.0000      0.0740
  334.0000      0.0735
  335.0000      0.0729
  336.0000      0.0725
  337.0000      0.0720
  338.0000      0.0717
  339.0000      0.0708
  340.0000      0.0710
  341.0000      0.0697
  342.0000      0.0699
  343.0000      0.0691
  344.0000      0.0687
  345.0000      0.0681
  346.0000      0.0682
  347.0000      0.0672
  348.0000      0.0669
  349.0000      0.0666
  350.0000      0.0660
  351.0000      0.0659
  352.0000      0.0651
  353.0000      0.0649
  354.0000      0.0639
  355.0000      0.0638
  356.0000      0.0631
  357.0000      0.0626
  358.0000      0.0594
  359.0000      0.0614
  360.0000      0.0601
  361.0000      0.0615
  362.0000      0.0592
  363.0000      0.0609
  364.0000      0.0596
  365.0000      0.0598
  366.0000      0.0595
  367.0000      0.0574
  368.0000      0.0579
  369.0000      0.0568
  370.0000      0.0568
  371.0000      0.0559
  372.0000      0.0562
  373.0000      0.0556
  374.0000      0.0558
  375.0000      0.0544
  376.0000      0.0545
  377.0000      0.0542
  378.0000      0.0536
  379.0000      0.0535
  380.0000      0.0526
  381.0000      0.0535
  382.0000      0.0515
  383.0000      0.0516
  384.0000      0.0507
  385.0000      0.0513
  386.0000      0.0512
  387.0000      0.0503
  388.0000      0.0502
  389.0000      0.0503
  390.0000      0.0498
  391.0000      0.0493
  392.0000      0.0491
  393.0000      0.0483
  394.0000      0.0484
  395.0000      0.0479
  396.0000      0.0479
  397.0000      0.0470
  398.0000      0.0465
  399.0000      0.0465
  400.0000      0.0461
  401.0000      0.0458
  402.0000      0.0455
  403.0000      0.0459
  404.0000      0.0453
  405.0000      0.0453
  406.0000      0.0447
  407.0000      0.0447
  408.0000      0.0442
  409.0000      0.0436
  410.0000      0.0429
  411.0000      0.0432
  412.0000      0.0427
  413.0000      0.0423
  414.0000      0.0428
  415.0000      0.0422
  416.0000      0.0415
  417.0000      0.0412
  418.0000      0.0412
  419.0000      0.0410
  420.0000      0.0408
  421.0000      0.0407
  422.0000      0.0406
  423.0000      0.0405
  424.0000      0.0404
  425.0000      0.0402
  426.0000      0.0402
  427.0000      0.0402
  428.0000      0.0403
  429.0000      0.0402
  430.0000      0.0402
  431.0000      0.0401
  432.0000      0.0400
  433.0000      0.0400
  434.0000      0.0399
  435.0000      0.0399
  436.0000      0.0397
  437.0000      0.0395
  438.0000      0.0394
  439.0000      0.0392
  440.0000      0.0390
  441.0000      0.0388
  442.0000      0.0388
  443.0000      0.0384
  444.0000      0.0382
  445.0000      0.0380
  446.0000      0.0379
  447.0000      0.0378
  448.0000      0.0377
  449.0000      0.0376
  450.0000      0.0375
  451.0000      0.0374
  452.0000      0.0374
  453.0000      0.0373
  454.0000      0.0373
  455.0000      0.0373
  456.0000      0.0372
  457.0000      0.0372
  458.0000      0.0372
  459.0000      0.0370
  460.0000      0.0370
  461.0000      0.0370
  462.0000      0.0370
  463.0000      0.0370
  464.0000      0.0370
  465.0000      0.0369
  466.0000      0.0370
  467.0000      0.0370
  468.0000      0.0369
  469.0000      0.0369
  470.0000      0.0367
  471.0000      0.0366
  472.0000      0.0365
  473.0000      0.0364
  474.0000      0.0362
  475.0000      0.0361
  476.0000      0.0359
  477.0000      0.0357
  478.0000      0.0356
  479.0000      0.0355
  480.0000      0.0354
  481.0000      0.0353
  482.0000      0.0352
  483.0000      0.0352
  484.0000      0.0352
  485.0000      0.0350
  486.0000      0.0349
  487.0000      0.0347
  488.0000      0.0345
  489.0000      0.0344
  490.0000      0.0342
  491.0000      0.0341
  492.0000      0.0342
  493.0000      0.0345
  494.0000      0.0349
  495.0000      0.0352
  496.0000      0.0354
  497.0000      0.0354
  498.0000      0.0353
  499.0000      0.0352
  500.0000      0.0350
  501.0000      0.0348
  502.0000      0.0347
  503.0000      0.0345
  504.0000      0.0345
  505.0000      0.0344
  506.0000      0.0343
  507.0000      0.0342
  508.0000      0.0342
  509.0000      0.0342
  510.0000      0.0342
  511.0000      0.0342
  512.0000      0.0341
  513.0000      0.0340
  514.0000      0.0338
  515.0000      0.0337
  516.0000      0.0335
  517.0000      0.0333
  518.0000      0.0331
  519.0000      0.0328
  520.0000      0.0326
  521.0000      0.0324
  522.0000      0.0323
  523.0000      0.0321
  524.0000      0.0319
  525.0000      0.0314
  526.0000      0.0308
  527.0000      0.0302
  528.0000      0.0297
  529.0000      0.0295
  530.0000      0.0294
  531.0000      0.0294
  532.0000      0.0293
  533.0000      0.0292
  534.0000      0.0291
  535.0000      0.0290
  536.0000      0.0289
  537.0000      0.0288
  538.0000      0.0288
  539.0000      0.0289
  540.0000      0.0289
  541.0000      0.0289
  542.0000      0.0289
  543.0000      0.0288
  544.0000      0.0286
  545.0000      0.0286
  546.0000      0.0287
  547.0000      0.0288
  548.0000      0.0287
  549.0000      0.0285
  550.0000      0.0285
  551.0000      0.0285
  552.0000      0.0286
  553.0000      0.0287
  554.0000      0.0288
  555.0000      0.0288
  556.0000      0.0287
  557.0000      0.0293
  558.0000      0.0292
  559.0000      0.0291
  560.0000      0.0290
  561.0000      0.0290
  562.0000      0.0289
  563.0000      0.0289
  564.0000      0.0289
  565.0000      0.0289
  566.0000      0.0288
  567.0000      0.0287
  568.0000      0.0285
  569.0000      0.0284
  570.0000      0.0285
  571.0000      0.0285
  572.0000      0.0286
  573.0000      0.0287
  574.0000      0.0287
  575.0000      0.0287
  576.0000      0.0288
  577.0000      0.0288
  578.0000      0.0288
  579.0000      0.0288
  580.0000      0.0288
  581.0000      0.0289
  582.0000      0.0289
  583.0000      0.0290
  584.0000      0.0290
  585.0000      0.0290
  586.0000      0.0291
  587.0000      0.0291
  588.0000      0.0292
  589.0000      0.0293
  590.0000      0.0293
  591.0000      0.0292
  592.0000      0.0290
  593.0000      0.0289
  594.0000      0.0288
  595.0000      0.0288
  596.0000      0.0286
  597.0000      0.0286
  598.0000      0.0287
  599.0000      0.0287
  600.0000      0.0288
  601.0000      0.0288
  602.0000      0.0288
  603.0000      0.0286
  604.0000      0.0285
  605.0000      0.0284
  606.0000      0.0283
  607.0000      0.0280
  608.0000      0.0278
  609.0000      0.0275
  610.0000      0.0273
  611.0000      0.0273
  612.0000      0.0272
  613.0000      0.0271
  614.0000      0.0270
  615.0000      0.0269
  616.0000      0.0268
  617.0000      0.0267
  618.0000      0.0267
  619.0000      0.0267
  620.0000      0.0267
  621.0000      0.0266
  622.0000      0.0266
  623.0000      0.0266
  624.0000      0.0266
  625.0000      0.0265
  626.0000      0.0265
  627.0000      0.0264
  628.0000      0.0263
  629.0000      0.0261
  630.0000      0.0261
  631.0000      0.0261
  632.0000      0.0260
  633.0000      0.0261
  634.0000      0.0260
  635.0000      0.0259
  636.0000      0.0259
  637.0000      0.0258
  638.0000      0.0258
  639.0000      0.0257
  640.0000      0.0255
  641.0000      0.0255
  642.0000      0.0255
  643.0000      0.0254
  644.0000      0.0254
  645.0000      0.0255
  646.0000      0.0255
  647.0000      0.0256
  648.0000      0.0256
  649.0000      0.0256
  650.0000      0.0256
  651.0000      0.0256
  652.0000      0.0256
  653.0000      0.0256
  654.0000      0.0256
  655.0000      0.0256
  656.0000      0.0256
  657.0000      0.0255
  658.0000      0.0255
  659.0000      0.0255
  660.0000      0.0254
  661.0000      0.0255
  662.0000      0.0255
  663.0000      0.0255
  664.0000      0.0255
  665.0000      0.0256
  666.0000      0.0257
  667.0000      0.0258
  668.0000      0.0258
  669.0000      0.0258
  670.0000      0.0259
  671.0000      0.0260
  672.0000      0.0260
  673.0000      0.0260
  674.0000      0.0260
  675.0000      0.0260
  676.0000      0.0260
  677.0000      0.0261
  678.0000      0.0261
  679.0000      0.0262
  680.0000      0.0263
  681.0000      0.0263
  682.0000      0.0262
  683.0000      0.0261
  684.0000      0.0261
  685.0000      0.0259
  686.0000      0.0257
  687.0000      0.0255
  688.0000      0.0253
  689.0000      0.0251
  690.0000      0.0250
  691.0000      0.0247
  692.0000      0.0246
  693.0000      0.0246
  694.0000      0.0245
  695.0000      0.0244
  696.0000      0.0243
  697.0000      0.0243
  698.0000      0.0242
  699.0000      0.0242
  700.0000      0.0242
  701.0000      0.0241
  702.0000      0.0240
  703.0000      0.0240
  704.0000      0.0239
  705.0000      0.0239
  706.0000      0.0239
  707.0000      0.0239
  708.0000      0.0239
  709.0000      0.0239
  710.0000      0.0239
  711.0000      0.0239
  712.0000      0.0239
  713.0000      0.0239
  714.0000      0.0240
  715.0000      0.0240
  716.0000      0.0240
  717.0000      0.0239
  718.0000      0.0240
  719.0000      0.0240
  720.0000      0.0240
  721.0000      0.0241
  722.0000      0.0240
  723.0000      0.0240
  724.0000      0.0239
  725.0000      0.0240
  726.0000      0.0241
  727.0000      0.0241
  728.0000      0.0241
  729.0000      0.0242
  730.0000      0.0243
  731.0000      0.0242
  732.0000      0.0242
  733.0000      0.0242
  734.0000      0.0242
  735.0000      0.0242
  736.0000      0.0236
  737.0000      0.0235
  738.0000      0.0233
  739.0000      0.0233
  740.0000      0.0233
  741.0000      0.0232
  742.0000      0.0231
  743.0000      0.0230
  744.0000      0.0231
  745.0000      0.0230
  746.0000      0.0229
  747.0000      0.0229
  748.0000      0.0229
  749.0000      0.0229
  750.0000      0.0229
  751.0000      0.0229
  752.0000      0.0229
  753.0000      0.0228
  754.0000      0.0229
  755.0000      0.0229
  756.0000      0.0229
  757.0000      0.0228
  758.0000      0.0228
  759.0000      0.0228
  760.0000      0.0228
  761.0000      0.0228
  762.0000      0.0228
  763.0000      0.0227
  764.0000      0.0227
  765.0000      0.0226
  766.0000      0.0227
  767.0000      0.0226
  768.0000      0.0225
  769.0000      0.0224
  770.0000      0.0224
  771.0000      0.0222
  772.0000      0.0222
  773.0000      0.0221
  774.0000      0.0220
  775.0000      0.0219
  776.0000      0.0218
  777.0000      0.0217
  778.0000      0.0216
  779.0000      0.0216
  780.0000      0.0216
  781.0000      0.0215
  782.0000      0.0214
  783.0000      0.0213
  784.0000      0.0212
  785.0000      0.0212
  786.0000      0.0212
  787.0000      0.0213
  788.0000      0.0213
  789.0000      0.0214
  790.0000      0.0213
  791.0000      0.0214
  792.0000      0.0214
  793.0000      0.0214
  794.0000      0.0214
  795.0000      0.0214
  796.0000      0.0213
  797.0000      0.0212
  798.0000      0.0212
  799.0000      0.0211
  800.0000      0.0211
