Start Wavelength:    200.0000
End Wavelength:    800.0000
Read Mode:  ABS
Read Average:      0.1000
Nanometer Interval:      1.0000
Time:      0.0000

  200.0000      0.8975
  201.0000      0.8391
  202.0000      0.8092
  203.0000      0.7835
  204.0000      0.7553
  205.0000      0.7328
  206.0000      0.7125
  207.0000      0.6905
  208.0000      0.6700
  209.0000      0.6460
  210.0000      0.6222
  211.0000      0.5998
  212.0000      0.5755
  213.0000      0.5488
  214.0000      0.5252
  215.0000      0.5009
  216.0000      0.4767
  217.0000      0.4503
  218.0000      0.4273
  219.0000      0.4053
  220.0000      0.3842
  221.0000      0.3617
  222.0000      0.3431
  223.0000      0.3252
  224.0000      0.3088
  225.0000      0.2918
  226.0000      0.2789
  227.0000      0.2660
  228.0000      0.2555
  229.0000      0.2438
  230.0000      0.2348
  231.0000      0.2268
  232.0000      0.2202
  233.0000      0.2127
  234.0000      0.2076
  235.0000      0.2025
  236.0000      0.1984
  237.0000      0.1936
  238.0000      0.1909
  239.0000      0.1873
  240.0000      0.1849
  241.0000      0.1819
  242.0000      0.1797
  243.0000      0.1779
  244.0000      0.1759
  245.0000      0.1742
  246.0000      0.1728
  247.0000      0.1716
  248.0000      0.1706
  249.0000      0.1695
  250.0000      0.1683
  251.0000      0.1673
  252.0000      0.1662
  253.0000      0.1654
  254.0000      0.1638
  255.0000      0.1630
  256.0000      0.1619
  257.0000      0.1607
  258.0000      0.1602
  259.0000      0.1591
  260.0000      0.1577
  261.0000      0.1577
  262.0000      0.1561
  263.0000      0.1554
  264.0000      0.1542
  265.0000      0.1533
  266.0000      0.1516
  267.0000      0.1504
  268.0000      0.1486
  269.0000      0.1477
  270.0000      0.1458
  271.0000      0.1451
  272.0000      0.1434
  273.0000      0.1423
  274.0000      0.1406
  275.0000      0.1390
  276.0000      0.1378
  277.0000      0.1360
  278.0000      0.1345
  279.0000      0.1331
  280.0000      0.1308
  281.0000      0.1293
  282.0000      0.1278
  283.0000      0.1262
  284.0000      0.1252
  285.0000      0.1231
  286.0000      0.1220
  287.0000      0.1204
  288.0000      0.1189
  289.0000      0.1172
  290.0000      0.1158
  291.0000      0.1137
  292.0000      0.1126
  293.0000      0.1105
  294.0000      0.1097
  295.0000      0.1081
  296.0000      0.1069
  297.0000      0.1056
  298.0000      0.1046
  299.0000      0.1031
  300.0000      0.1020
  301.0000      0.1006
  302.0000      0.0996
  303.0000      0.0976
  304.0000      0.0964
  305.0000      0.0956
  306.0000      0.0946
  307.0000      0.0937
  308.0000      0.0928
  309.0000      0.0915
  310.0000      0.0907
  311.0000      0.0897
  312.0000      0.0885
  313.0000      0.0871
  314.0000      0.0863
  315.0000      0.0854
  316.0000      0.0841
  317.0000      0.0832
  318.0000      0.0823
  319.0000      0.0809
  320.0000      0.0804
  321.0000      0.0809
  322.0000      0.0801
  323.0000      0.0796
  324.0000      0.0786
  325.0000      0.0784
  326.0000      0.0776
  327.0000      0.0768
  328.0000      0.0761
  329.0000      0.0757
  330.0000      0.0749
  331.0000      0.0746
  332.0000      0.0734
  333.0000      0.0732
  334.0000      0.0722
  335.0000      0.0725
  336.0000      0.0717
  337.0000      0.0715
  338.0000      0.0711
  339.0000      0.0709
  340.0000      0.0706
  341.0000      0.0698
  342.0000      0.0692
  343.0000      0.0683
  344.0000      0.0680
  345.0000      0.0674
  346.0000      0.0668
  347.0000      0.0660
  348.0000      0.0655
  349.0000      0.0651
  350.0000      0.0647
  351.0000      0.0642
  352.0000      0.0640
  353.0000      0.0633
  354.0000      0.0627
  355.0000      0.0624
  356.0000      0.0623
  357.0000      0.0647
  358.0000      0.0637
  359.0000      0.0642
  360.0000      0.0650
  361.0000      0.0644
  362.0000      0.0636
  363.0000      0.0636
  364.0000      0.0641
  365.0000      0.0633
  366.0000      0.0631
  367.0000      0.0626
  368.0000      0.0626
  369.0000      0.0621
  370.0000      0.0606
  371.0000      0.0622
  372.0000      0.0599
  373.0000      0.0608
  374.0000      0.0607
  375.0000      0.0597
  376.0000      0.0600
  377.0000      0.0603
  378.0000      0.0592
  379.0000      0.0596
  380.0000      0.0585
  381.0000      0.0594
  382.0000      0.0578
  383.0000      0.0581
  384.0000      0.0569
  385.0000      0.0569
  386.0000      0.0573
  387.0000      0.0571
  388.0000      0.0567
  389.0000      0.0566
  390.0000      0.0562
  391.0000      0.0557
  392.0000      0.0556
  393.0000      0.0548
  394.0000      0.0547
  395.0000      0.0544
  396.0000      0.0545
  397.0000      0.0532
  398.0000      0.0532
  399.0000      0.0529
  400.0000      0.0528
  401.0000      0.0519
  402.0000      0.0527
  403.0000      0.0519
  404.0000      0.0525
  405.0000      0.0512
  406.0000      0.0517
  407.0000      0.0508
  408.0000      0.0508
  409.0000      0.0504
  410.0000      0.0500
  411.0000      0.0500
  412.0000      0.0496
  413.0000      0.0494
  414.0000      0.0496
  415.0000      0.0492
  416.0000      0.0501
  417.0000      0.0499
  418.0000      0.0497
  419.0000      0.0494
  420.0000      0.0492
  421.0000      0.0489
  422.0000      0.0487
  423.0000      0.0484
  424.0000      0.0481
  425.0000      0.0479
  426.0000      0.0476
  427.0000      0.0474
  428.0000      0.0473
  429.0000      0.0471
  430.0000      0.0469
  431.0000      0.0466
  432.0000      0.0463
  433.0000      0.0461
  434.0000      0.0459
  435.0000      0.0456
  436.0000      0.0454
  437.0000      0.0450
  438.0000      0.0448
  439.0000      0.0444
  440.0000      0.0441
  441.0000      0.0437
  442.0000      0.0435
  443.0000      0.0431
  444.0000      0.0428
  445.0000      0.0425
  446.0000      0.0422
  447.0000      0.0419
  448.0000      0.0416
  449.0000      0.0412
  450.0000      0.0410
  451.0000      0.0406
  452.0000      0.0404
  453.0000      0.0401
  454.0000      0.0399
  455.0000      0.0397
  456.0000      0.0394
  457.0000      0.0393
  458.0000      0.0389
  459.0000      0.0387
  460.0000      0.0384
  461.0000      0.0384
  462.0000      0.0381
  463.0000      0.0380
  464.0000      0.0378
  465.0000      0.0377
  466.0000      0.0376
  467.0000      0.0374
  468.0000      0.0373
  469.0000      0.0371
  470.0000      0.0369
  471.0000      0.0367
  472.0000      0.0366
  473.0000      0.0364
  474.0000      0.0362
  475.0000      0.0360
  476.0000      0.0358
  477.0000      0.0356
  478.0000      0.0354
  479.0000      0.0353
  480.0000      0.0351
  481.0000      0.0350
  482.0000      0.0348
  483.0000      0.0347
  484.0000      0.0345
  485.0000      0.0344
  486.0000      0.0343
  487.0000      0.0343
  488.0000      0.0342
  489.0000      0.0341
  490.0000      0.0340
  491.0000      0.0340
  492.0000      0.0339
  493.0000      0.0339
  494.0000      0.0339
  495.0000      0.0338
  496.0000      0.0338
  497.0000      0.0338
  498.0000      0.0338
  499.0000      0.0337
  500.0000      0.0337
  501.0000      0.0337
  502.0000      0.0336
  503.0000      0.0337
  504.0000      0.0338
  505.0000      0.0339
  506.0000      0.0341
  507.0000      0.0343
  508.0000      0.0343
  509.0000      0.0344
  510.0000      0.0342
  511.0000      0.0341
  512.0000      0.0339
  513.0000      0.0337
  514.0000      0.0336
  515.0000      0.0334
  516.0000      0.0333
  517.0000      0.0332
  518.0000      0.0330
  519.0000      0.0328
  520.0000      0.0327
  521.0000      0.0327
  522.0000      0.0325
  523.0000      0.0324
  524.0000      0.0324
  525.0000      0.0323
  526.0000      0.0322
  527.0000      0.0321
  528.0000      0.0320
  529.0000      0.0319
  530.0000      0.0319
  531.0000      0.0318
  532.0000      0.0318
  533.0000      0.0317
  534.0000      0.0317
  535.0000      0.0317
  536.0000      0.0316
  537.0000      0.0315
  538.0000      0.0314
  539.0000      0.0313
  540.0000      0.0311
  541.0000      0.0310
  542.0000      0.0308
  543.0000      0.0307
  544.0000      0.0304
  545.0000      0.0303
  546.0000      0.0301
  547.0000      0.0299
  548.0000      0.0297
  549.0000      0.0296
  550.0000      0.0294
  551.0000      0.0293
  552.0000      0.0292
  553.0000      0.0292
  554.0000      0.0292
  555.0000      0.0292
  556.0000      0.0291
  557.0000      0.0296
  558.0000      0.0294
  559.0000      0.0293
  560.0000      0.0292
  561.0000      0.0290
  562.0000      0.0287
  563.0000      0.0285
  564.0000      0.0284
  565.0000      0.0283
  566.0000      0.0283
  567.0000      0.0283
  568.0000      0.0282
  569.0000      0.0282
  570.0000      0.0281
  571.0000      0.0281
  572.0000      0.0282
  573.0000      0.0281
  574.0000      0.0281
  575.0000      0.0281
  576.0000      0.0280
  577.0000      0.0280
  578.0000      0.0280
  579.0000      0.0279
  580.0000      0.0278
  581.0000      0.0278
  582.0000      0.0278
  583.0000      0.0278
  584.0000      0.0278
  585.0000      0.0277
  586.0000      0.0277
  587.0000      0.0276
  588.0000      0.0276
  589.0000      0.0275
  590.0000      0.0274
  591.0000      0.0273
  592.0000      0.0273
  593.0000      0.0273
  594.0000      0.0275
  595.0000      0.0276
  596.0000      0.0278
  597.0000      0.0280
  598.0000      0.0281
  599.0000      0.0282
  600.0000      0.0283
  601.0000      0.0283
  602.0000      0.0284
  603.0000      0.0284
  604.0000      0.0285
  605.0000      0.0285
  606.0000      0.0285
  607.0000      0.0285
  608.0000      0.0284
  609.0000      0.0283
  610.0000      0.0282
  611.0000      0.0281
  612.0000      0.0280
  613.0000      0.0280
  614.0000      0.0279
  615.0000      0.0278
  616.0000      0.0278
  617.0000      0.0278
  618.0000      0.0278
  619.0000      0.0278
  620.0000      0.0279
  621.0000      0.0279
  622.0000      0.0279
  623.0000      0.0278
  624.0000      0.0277
  625.0000      0.0276
  626.0000      0.0275
  627.0000      0.0274
  628.0000      0.0273
  629.0000      0.0272
  630.0000      0.0271
  631.0000      0.0269
  632.0000      0.0268
  633.0000      0.0266
  634.0000      0.0265
  635.0000      0.0263
  636.0000      0.0262
  637.0000      0.0260
  638.0000      0.0259
  639.0000      0.0258
  640.0000      0.0256
  641.0000      0.0255
  642.0000      0.0255
  643.0000      0.0255
  644.0000      0.0254
  645.0000      0.0254
  646.0000      0.0254
  647.0000      0.0254
  648.0000      0.0253
  649.0000      0.0253
  650.0000      0.0252
  651.0000      0.0251
  652.0000      0.0250
  653.0000      0.0249
  654.0000      0.0248
  655.0000      0.0247
  656.0000      0.0247
  657.0000      0.0246
  658.0000      0.0246
  659.0000      0.0246
  660.0000      0.0247
  661.0000      0.0247
  662.0000      0.0247
  663.0000      0.0248
  664.0000      0.0248
  665.0000      0.0249
  666.0000      0.0250
  667.0000      0.0250
  668.0000      0.0251
  669.0000      0.0252
  670.0000      0.0252
  671.0000      0.0253
  672.0000      0.0253
  673.0000      0.0254
  674.0000      0.0254
  675.0000      0.0254
  676.0000      0.0254
  677.0000      0.0255
  678.0000      0.0255
  679.0000      0.0254
  680.0000      0.0255
  681.0000      0.0256
  682.0000      0.0256
  683.0000      0.0256
  684.0000      0.0256
  685.0000      0.0256
  686.0000      0.0255
  687.0000      0.0255
  688.0000      0.0254
  689.0000      0.0254
  690.0000      0.0254
  691.0000      0.0253
  692.0000      0.0253
  693.0000      0.0252
  694.0000      0.0251
  695.0000      0.0250
  696.0000      0.0250
  697.0000      0.0249
  698.0000      0.0248
  699.0000      0.0247
  700.0000      0.0247
  701.0000      0.0247
  702.0000      0.0246
  703.0000      0.0244
  704.0000      0.0243
  705.0000      0.0244
  706.0000      0.0245
  707.0000      0.0244
  708.0000      0.0243
  709.0000      0.0242
  710.0000      0.0242
  711.0000      0.0241
  712.0000      0.0240
  713.0000      0.0239
  714.0000      0.0238
  715.0000      0.0237
  716.0000      0.0236
  717.0000      0.0235
  718.0000      0.0235
  719.0000      0.0235
  720.0000      0.0235
  721.0000      0.0235
  722.0000      0.0235
  723.0000      0.0235
  724.0000      0.0235
  725.0000      0.0235
  726.0000      0.0234
  727.0000      0.0234
  728.0000      0.0235
  729.0000      0.0235
  730.0000      0.0236
  731.0000      0.0235
  732.0000      0.0235
  733.0000      0.0235
  734.0000      0.0235
  735.0000      0.0235
  736.0000      0.0239
  737.0000      0.0239
  738.0000      0.0238
  739.0000      0.0238
  740.0000      0.0238
  741.0000      0.0237
  742.0000      0.0236
  743.0000      0.0235
  744.0000      0.0236
  745.0000      0.0234
  746.0000      0.0234
  747.0000      0.0233
  748.0000      0.0232
  749.0000      0.0232
  750.0000      0.0231
  751.0000      0.0230
  752.0000      0.0230
  753.0000      0.0229
  754.0000      0.0229
  755.0000      0.0229
  756.0000      0.0228
  757.0000      0.0227
  758.0000      0.0226
  759.0000      0.0226
  760.0000      0.0225
  761.0000      0.0225
  762.0000      0.0224
  763.0000      0.0224
  764.0000      0.0223
  765.0000      0.0223
  766.0000      0.0223
  767.0000      0.0223
  768.0000      0.0222
  769.0000      0.0222
  770.0000      0.0222
  771.0000      0.0222
  772.0000      0.0222
  773.0000      0.0222
  774.0000      0.0223
  775.0000      0.0222
  776.0000      0.0221
  777.0000      0.0222
  778.0000      0.0222
  779.0000      0.0221
  780.0000      0.0221
  781.0000      0.0221
  782.0000      0.0220
  783.0000      0.0220
  784.0000      0.0219
  785.0000      0.0219
  786.0000      0.0219
  787.0000      0.0220
  788.0000      0.0219
  789.0000      0.0218
  790.0000      0.0218
  791.0000      0.0218
  792.0000      0.0218
  793.0000      0.0217
  794.0000      0.0217
  795.0000      0.0216
  796.0000      0.0215
  797.0000      0.0215
  798.0000      0.0215
  799.0000      0.0214
  800.0000      0.0213
