Start Wavelength:    200.0000
End Wavelength:    800.0000
Read Mode:  ABS
Read Average:      0.1000
Nanometer Interval:      1.0000
Time:      0.0000

  200.0000      1.2190
  201.0000      1.1785
  202.0000      1.1505
  203.0000      1.1333
  204.0000      1.1060
  205.0000      1.0817
  206.0000      1.0514
  207.0000      1.0216
  208.0000      0.9927
  209.0000      0.9542
  210.0000      0.9211
  211.0000      0.8860
  212.0000      0.8452
  213.0000      0.8024
  214.0000      0.7627
  215.0000      0.7205
  216.0000      0.6795
  217.0000      0.6366
  218.0000      0.5967
  219.0000      0.5579
  220.0000      0.5214
  221.0000      0.4838
  222.0000      0.4514
  223.0000      0.4217
  224.0000      0.3943
  225.0000      0.3668
  226.0000      0.3440
  227.0000      0.3240
  228.0000      0.3057
  229.0000      0.2876
  230.0000      0.2731
  231.0000      0.2609
  232.0000      0.2494
  233.0000      0.2388
  234.0000      0.2299
  235.0000      0.2226
  236.0000      0.2160
  237.0000      0.2097
  238.0000      0.2049
  239.0000      0.2001
  240.0000      0.1969
  241.0000      0.1933
  242.0000      0.1895
  243.0000      0.1875
  244.0000      0.1848
  245.0000      0.1822
  246.0000      0.1806
  247.0000      0.1788
  248.0000      0.1770
  249.0000      0.1753
  250.0000      0.1742
  251.0000      0.1733
  252.0000      0.1719
  253.0000      0.1707
  254.0000      0.1694
  255.0000      0.1682
  256.0000      0.1667
  257.0000      0.1652
  258.0000      0.1646
  259.0000      0.1627
  260.0000      0.1618
  261.0000      0.1611
  262.0000      0.1595
  263.0000      0.1580
  264.0000      0.1575
  265.0000      0.1557
  266.0000      0.1535
  267.0000      0.1524
  268.0000      0.1507
  269.0000      0.1485
  270.0000      0.1475
  271.0000      0.1465
  272.0000      0.1447
  273.0000      0.1430
  274.0000      0.1416
  275.0000      0.1399
  276.0000      0.1385
  277.0000      0.1377
  278.0000      0.1362
  279.0000      0.1345
  280.0000      0.1330
  281.0000      0.1311
  282.0000      0.1295
  283.0000      0.1277
  284.0000      0.1264
  285.0000      0.1244
  286.0000      0.1224
  287.0000      0.1208
  288.0000      0.1190
  289.0000      0.1172
  290.0000      0.1152
  291.0000      0.1138
  292.0000      0.1124
  293.0000      0.1106
  294.0000      0.1093
  295.0000      0.1080
  296.0000      0.1059
  297.0000      0.1052
  298.0000      0.1034
  299.0000      0.1021
  300.0000      0.1007
  301.0000      0.0994
  302.0000      0.0981
  303.0000      0.0963
  304.0000      0.0951
  305.0000      0.0940
  306.0000      0.0926
  307.0000      0.0919
  308.0000      0.0907
  309.0000      0.0892
  310.0000      0.0883
  311.0000      0.0877
  312.0000      0.0860
  313.0000      0.0844
  314.0000      0.0835
  315.0000      0.0827
  316.0000      0.0809
  317.0000      0.0797
  318.0000      0.0791
  319.0000      0.0776
  320.0000      0.0767
  321.0000      0.0772
  322.0000      0.0743
  323.0000      0.0734
  324.0000      0.0727
  325.0000      0.0723
  326.0000      0.0715
  327.0000      0.0707
  328.0000      0.0705
  329.0000      0.0692
  330.0000      0.0687
  331.0000      0.0680
  332.0000      0.0670
  333.0000      0.0660
  334.0000      0.0657
  335.0000      0.0657
  336.0000      0.0650
  337.0000      0.0639
  338.0000      0.0639
  339.0000      0.0632
  340.0000      0.0624
  341.0000      0.0618
  342.0000      0.0615
  343.0000      0.0605
  344.0000      0.0598
  345.0000      0.0598
  346.0000      0.0592
  347.0000      0.0582
  348.0000      0.0581
  349.0000      0.0575
  350.0000      0.0571
  351.0000      0.0568
  352.0000      0.0562
  353.0000      0.0559
  354.0000      0.0548
  355.0000      0.0551
  356.0000      0.0544
  357.0000      0.0527
  358.0000      0.0523
  359.0000      0.0525
  360.0000      0.0521
  361.0000      0.0508
  362.0000      0.0518
  363.0000      0.0514
  364.0000      0.0508
  365.0000      0.0503
  366.0000      0.0503
  367.0000      0.0487
  368.0000      0.0490
  369.0000      0.0482
  370.0000      0.0466
  371.0000      0.0466
  372.0000      0.0462
  373.0000      0.0458
  374.0000      0.0459
  375.0000      0.0449
  376.0000      0.0448
  377.0000      0.0437
  378.0000      0.0441
  379.0000      0.0433
  380.0000      0.0431
  381.0000      0.0426
  382.0000      0.0421
  383.0000      0.0408
  384.0000      0.0409
  385.0000      0.0401
  386.0000      0.0404
  387.0000      0.0401
  388.0000      0.0398
  389.0000      0.0398
  390.0000      0.0394
  391.0000      0.0390
  392.0000      0.0393
  393.0000      0.0386
  394.0000      0.0376
  395.0000      0.0378
  396.0000      0.0377
  397.0000      0.0371
  398.0000      0.0369
  399.0000      0.0372
  400.0000      0.0365
  401.0000      0.0362
  402.0000      0.0363
  403.0000      0.0361
  404.0000      0.0364
  405.0000      0.0355
  406.0000      0.0360
  407.0000      0.0351
  408.0000      0.0350
  409.0000      0.0343
  410.0000      0.0339
  411.0000      0.0344
  412.0000      0.0333
  413.0000      0.0337
  414.0000      0.0339
  415.0000      0.0335
  416.0000      0.0314
  417.0000      0.0311
  418.0000      0.0310
  419.0000      0.0309
  420.0000      0.0307
  421.0000      0.0304
  422.0000      0.0304
  423.0000      0.0303
  424.0000      0.0302
  425.0000      0.0299
  426.0000      0.0297
  427.0000      0.0297
  428.0000      0.0294
  429.0000      0.0293
  430.0000      0.0291
  431.0000      0.0289
  432.0000      0.0288
  433.0000      0.0287
  434.0000      0.0286
  435.0000      0.0284
  436.0000      0.0282
  437.0000      0.0281
  438.0000      0.0279
  439.0000      0.0276
  440.0000      0.0274
  441.0000      0.0272
  442.0000      0.0270
  443.0000      0.0268
  444.0000      0.0266
  445.0000      0.0264
  446.0000      0.0261
  447.0000      0.0260
  448.0000      0.0259
  449.0000      0.0256
  450.0000      0.0257
  451.0000      0.0257
  452.0000      0.0255
  453.0000      0.0254
  454.0000      0.0253
  455.0000      0.0251
  456.0000      0.0251
  457.0000      0.0250
  458.0000      0.0249
  459.0000      0.0248
  460.0000      0.0248
  461.0000      0.0248
  462.0000      0.0247
  463.0000      0.0247
  464.0000      0.0247
  465.0000      0.0246
  466.0000      0.0246
  467.0000      0.0247
  468.0000      0.0247
  469.0000      0.0247
  470.0000      0.0246
  471.0000      0.0246
  472.0000      0.0244
  473.0000      0.0244
  474.0000      0.0243
  475.0000      0.0242
  476.0000      0.0241
  477.0000      0.0241
  478.0000      0.0241
  479.0000      0.0240
  480.0000      0.0240
  481.0000      0.0239
  482.0000      0.0239
  483.0000      0.0238
  484.0000      0.0237
  485.0000      0.0237
  486.0000      0.0237
  487.0000      0.0236
  488.0000      0.0236
  489.0000      0.0234
  490.0000      0.0233
  491.0000      0.0232
  492.0000      0.0232
  493.0000      0.0230
  494.0000      0.0230
  495.0000      0.0229
  496.0000      0.0229
  497.0000      0.0230
  498.0000      0.0230
  499.0000      0.0231
  500.0000      0.0231
  501.0000      0.0230
  502.0000      0.0229
  503.0000      0.0229
  504.0000      0.0228
  505.0000      0.0227
  506.0000      0.0227
  507.0000      0.0227
  508.0000      0.0226
  509.0000      0.0226
  510.0000      0.0226
  511.0000      0.0225
  512.0000      0.0223
  513.0000      0.0221
  514.0000      0.0219
  515.0000      0.0218
  516.0000      0.0217
  517.0000      0.0216
  518.0000      0.0215
  519.0000      0.0214
  520.0000      0.0212
  521.0000      0.0210
  522.0000      0.0209
  523.0000      0.0207
  524.0000      0.0206
  525.0000      0.0204
  526.0000      0.0203
  527.0000      0.0200
  528.0000      0.0198
  529.0000      0.0197
  530.0000      0.0196
  531.0000      0.0196
  532.0000      0.0195
  533.0000      0.0194
  534.0000      0.0195
  535.0000      0.0195
  536.0000      0.0194
  537.0000      0.0193
  538.0000      0.0192
  539.0000      0.0190
  540.0000      0.0189
  541.0000      0.0188
  542.0000      0.0187
  543.0000      0.0185
  544.0000      0.0184
  545.0000      0.0184
  546.0000      0.0183
  547.0000      0.0183
  548.0000      0.0183
  549.0000      0.0182
  550.0000      0.0182
  551.0000      0.0182
  552.0000      0.0181
  553.0000      0.0181
  554.0000      0.0181
  555.0000      0.0180
  556.0000      0.0179
  557.0000      0.0190
  558.0000      0.0190
  559.0000      0.0190
  560.0000      0.0191
  561.0000      0.0192
  562.0000      0.0192
  563.0000      0.0193
  564.0000      0.0193
  565.0000      0.0192
  566.0000      0.0191
  567.0000      0.0190
  568.0000      0.0189
  569.0000      0.0187
  570.0000      0.0184
  571.0000      0.0183
  572.0000      0.0182
  573.0000      0.0182
  574.0000      0.0181
  575.0000      0.0180
  576.0000      0.0177
  577.0000      0.0176
  578.0000      0.0174
  579.0000      0.0172
  580.0000      0.0170
  581.0000      0.0169
  582.0000      0.0167
  583.0000      0.0166
  584.0000      0.0164
  585.0000      0.0163
  586.0000      0.0163
  587.0000      0.0163
  588.0000      0.0163
  589.0000      0.0163
  590.0000      0.0162
  591.0000      0.0162
  592.0000      0.0162
  593.0000      0.0161
  594.0000      0.0160
  595.0000      0.0159
  596.0000      0.0158
  597.0000      0.0157
  598.0000      0.0156
  599.0000      0.0156
  600.0000      0.0155
  601.0000      0.0155
  602.0000      0.0154
  603.0000      0.0152
  604.0000      0.0151
  605.0000      0.0150
  606.0000      0.0150
  607.0000      0.0150
  608.0000      0.0150
  609.0000      0.0150
  610.0000      0.0150
  611.0000      0.0150
  612.0000      0.0149
  613.0000      0.0149
  614.0000      0.0149
  615.0000      0.0148
  616.0000      0.0148
  617.0000      0.0147
  618.0000      0.0147
  619.0000      0.0147
  620.0000      0.0147
  621.0000      0.0147
  622.0000      0.0148
  623.0000      0.0148
  624.0000      0.0148
  625.0000      0.0148
  626.0000      0.0148
  627.0000      0.0148
  628.0000      0.0147
  629.0000      0.0147
  630.0000      0.0147
  631.0000      0.0147
  632.0000      0.0146
  633.0000      0.0145
  634.0000      0.0145
  635.0000      0.0143
  636.0000      0.0143
  637.0000      0.0142
  638.0000      0.0142
  639.0000      0.0142
  640.0000      0.0141
  641.0000      0.0141
  642.0000      0.0141
  643.0000      0.0141
  644.0000      0.0142
  645.0000      0.0143
  646.0000      0.0144
  647.0000      0.0145
  648.0000      0.0146
  649.0000      0.0146
  650.0000      0.0146
  651.0000      0.0147
  652.0000      0.0148
  653.0000      0.0149
  654.0000      0.0150
  655.0000      0.0150
  656.0000      0.0150
  657.0000      0.0151
  658.0000      0.0151
  659.0000      0.0152
  660.0000      0.0153
  661.0000      0.0154
  662.0000      0.0154
  663.0000      0.0153
  664.0000      0.0151
  665.0000      0.0149
  666.0000      0.0147
  667.0000      0.0145
  668.0000      0.0142
  669.0000      0.0140
  670.0000      0.0140
  671.0000      0.0140
  672.0000      0.0140
  673.0000      0.0140
  674.0000      0.0140
  675.0000      0.0141
  676.0000      0.0142
  677.0000      0.0142
  678.0000      0.0143
  679.0000      0.0144
  680.0000      0.0144
  681.0000      0.0145
  682.0000      0.0145
  683.0000      0.0145
  684.0000      0.0145
  685.0000      0.0145
  686.0000      0.0145
  687.0000      0.0144
  688.0000      0.0144
  689.0000      0.0143
  690.0000      0.0143
  691.0000      0.0141
  692.0000      0.0141
  693.0000      0.0139
  694.0000      0.0138
  695.0000      0.0138
  696.0000      0.0137
  697.0000      0.0136
  698.0000      0.0134
  699.0000      0.0133
  700.0000      0.0131
  701.0000      0.0130
  702.0000      0.0129
  703.0000      0.0128
  704.0000      0.0128
  705.0000      0.0128
  706.0000      0.0129
  707.0000      0.0130
  708.0000      0.0131
  709.0000      0.0131
  710.0000      0.0132
  711.0000      0.0133
  712.0000      0.0134
  713.0000      0.0135
  714.0000      0.0136
  715.0000      0.0136
  716.0000      0.0135
  717.0000      0.0135
  718.0000      0.0135
  719.0000      0.0134
  720.0000      0.0133
  721.0000      0.0133
  722.0000      0.0134
  723.0000      0.0132
  724.0000      0.0131
  725.0000      0.0130
  726.0000      0.0129
  727.0000      0.0128
  728.0000      0.0128
  729.0000      0.0128
  730.0000      0.0128
  731.0000      0.0128
  732.0000      0.0129
  733.0000      0.0130
  734.0000      0.0133
  735.0000      0.0135
  736.0000      0.0131
  737.0000      0.0131
  738.0000      0.0132
  739.0000      0.0133
  740.0000      0.0133
  741.0000      0.0133
  742.0000      0.0133
  743.0000      0.0131
  744.0000      0.0130
  745.0000      0.0129
  746.0000      0.0129
  747.0000      0.0127
  748.0000      0.0126
  749.0000      0.0125
  750.0000      0.0124
  751.0000      0.0123
  752.0000      0.0123
  753.0000      0.0122
  754.0000      0.0122
  755.0000      0.0121
  756.0000      0.0120
  757.0000      0.0119
  758.0000      0.0119
  759.0000      0.0118
  760.0000      0.0117
  761.0000      0.0116
  762.0000      0.0116
  763.0000      0.0116
  764.0000      0.0116
  765.0000      0.0116
  766.0000      0.0116
  767.0000      0.0116
  768.0000      0.0114
  769.0000      0.0114
  770.0000      0.0113
  771.0000      0.0112
  772.0000      0.0112
  773.0000      0.0110
  774.0000      0.0110
  775.0000      0.0110
  776.0000      0.0110
  777.0000      0.0109
  778.0000      0.0109
  779.0000      0.0109
  780.0000      0.0109
  781.0000      0.0110
  782.0000      0.0110
  783.0000      0.0110
  784.0000      0.0111
  785.0000      0.0111
  786.0000      0.0113
  787.0000      0.0114
  788.0000      0.0115
  789.0000      0.0116
  790.0000      0.0117
  791.0000      0.0118
  792.0000      0.0119
  793.0000      0.0120
  794.0000      0.0121
  795.0000      0.0122
  796.0000      0.0122
  797.0000      0.0122
  798.0000      0.0122
  799.0000      0.0121
  800.0000      0.0120
