Start Wavelength:    200.0000
End Wavelength:    800.0000
Read Mode:  ABS
Read Average:      0.1000
Nanometer Interval:      1.0000
Time:      0.0000

  200.0000      0.9157
  201.0000      0.8658
  202.0000      0.8363
  203.0000      0.8095
  204.0000      0.7831
  205.0000      0.7600
  206.0000      0.7375
  207.0000      0.7170
  208.0000      0.6966
  209.0000      0.6721
  210.0000      0.6509
  211.0000      0.6282
  212.0000      0.6056
  213.0000      0.5814
  214.0000      0.5581
  215.0000      0.5367
  216.0000      0.5132
  217.0000      0.4872
  218.0000      0.4652
  219.0000      0.4447
  220.0000      0.4230
  221.0000      0.4027
  222.0000      0.3834
  223.0000      0.3659
  224.0000      0.3507
  225.0000      0.3349
  226.0000      0.3211
  227.0000      0.3092
  228.0000      0.2979
  229.0000      0.2867
  230.0000      0.2778
  231.0000      0.2694
  232.0000      0.2618
  233.0000      0.2545
  234.0000      0.2481
  235.0000      0.2427
  236.0000      0.2381
  237.0000      0.2329
  238.0000      0.2291
  239.0000      0.2255
  240.0000      0.2221
  241.0000      0.2194
  242.0000      0.2164
  243.0000      0.2135
  244.0000      0.2119
  245.0000      0.2098
  246.0000      0.2077
  247.0000      0.2060
  248.0000      0.2035
  249.0000      0.1989
  250.0000      0.2022
  251.0000      0.2010
  252.0000      0.1996
  253.0000      0.1983
  254.0000      0.1972
  255.0000      0.1960
  256.0000      0.1947
  257.0000      0.1937
  258.0000      0.1926
  259.0000      0.1919
  260.0000      0.1906
  261.0000      0.1898
  262.0000      0.1885
  263.0000      0.1870
  264.0000      0.1868
  265.0000      0.1852
  266.0000      0.1832
  267.0000      0.1822
  268.0000      0.1801
  269.0000      0.1789
  270.0000      0.1778
  271.0000      0.1759
  272.0000      0.1741
  273.0000      0.1728
  274.0000      0.1712
  275.0000      0.1699
  276.0000      0.1681
  277.0000      0.1661
  278.0000      0.1647
  279.0000      0.1635
  280.0000      0.1612
  281.0000      0.1591
  282.0000      0.1571
  283.0000      0.1551
  284.0000      0.1535
  285.0000      0.1518
  286.0000      0.1500
  287.0000      0.1483
  288.0000      0.1462
  289.0000      0.1438
  290.0000      0.1428
  291.0000      0.1405
  292.0000      0.1380
  293.0000      0.1368
  294.0000      0.1348
  295.0000      0.1327
  296.0000      0.1311
  297.0000      0.1298
  298.0000      0.1274
  299.0000      0.1264
  300.0000      0.1246
  301.0000      0.1226
  302.0000      0.1211
  303.0000      0.1192
  304.0000      0.1172
  305.0000      0.1158
  306.0000      0.1144
  307.0000      0.1130
  308.0000      0.1115
  309.0000      0.1099
  310.0000      0.1093
  311.0000      0.1086
  312.0000      0.1066
  313.0000      0.1057
  314.0000      0.1046
  315.0000      0.1030
  316.0000      0.1024
  317.0000      0.1010
  318.0000      0.0997
  319.0000      0.0990
  320.0000      0.0987
  321.0000      0.0972
  322.0000      0.0956
  323.0000      0.0951
  324.0000      0.0944
  325.0000      0.0931
  326.0000      0.0922
  327.0000      0.0915
  328.0000      0.0907
  329.0000      0.0897
  330.0000      0.0894
  331.0000      0.0881
  332.0000      0.0871
  333.0000      0.0862
  334.0000      0.0854
  335.0000      0.0848
  336.0000      0.0838
  337.0000      0.0829
  338.0000      0.0826
  339.0000      0.0817
  340.0000      0.0810
  341.0000      0.0803
  342.0000      0.0791
  343.0000      0.0780
  344.0000      0.0775
  345.0000      0.0767
  346.0000      0.0763
  347.0000      0.0756
  348.0000      0.0749
  349.0000      0.0744
  350.0000      0.0739
  351.0000      0.0736
  352.0000      0.0730
  353.0000      0.0725
  354.0000      0.0716
  355.0000      0.0715
  356.0000      0.0711
  357.0000      0.0710
  358.0000      0.0694
  359.0000      0.0708
  360.0000      0.0692
  361.0000      0.0694
  362.0000      0.0688
  363.0000      0.0687
  364.0000      0.0691
  365.0000      0.0673
  366.0000      0.0669
  367.0000      0.0661
  368.0000      0.0662
  369.0000      0.0649
  370.0000      0.0656
  371.0000      0.0639
  372.0000      0.0628
  373.0000      0.0635
  374.0000      0.0631
  375.0000      0.0624
  376.0000      0.0626
  377.0000      0.0618
  378.0000      0.0617
  379.0000      0.0613
  380.0000      0.0610
  381.0000      0.0602
  382.0000      0.0600
  383.0000      0.0592
  384.0000      0.0586
  385.0000      0.0589
  386.0000      0.0582
  387.0000      0.0583
  388.0000      0.0579
  389.0000      0.0575
  390.0000      0.0573
  391.0000      0.0573
  392.0000      0.0566
  393.0000      0.0564
  394.0000      0.0560
  395.0000      0.0562
  396.0000      0.0556
  397.0000      0.0554
  398.0000      0.0551
  399.0000      0.0554
  400.0000      0.0547
  401.0000      0.0540
  402.0000      0.0542
  403.0000      0.0537
  404.0000      0.0536
  405.0000      0.0537
  406.0000      0.0535
  407.0000      0.0531
  408.0000      0.0526
  409.0000      0.0521
  410.0000      0.0511
  411.0000      0.0517
  412.0000      0.0513
  413.0000      0.0514
  414.0000      0.0510
  415.0000      0.0508
  416.0000      0.0491
  417.0000      0.0486
  418.0000      0.0486
  419.0000      0.0483
  420.0000      0.0483
  421.0000      0.0479
  422.0000      0.0477
  423.0000      0.0475
  424.0000      0.0473
  425.0000      0.0470
  426.0000      0.0467
  427.0000      0.0466
  428.0000      0.0464
  429.0000      0.0462
  430.0000      0.0460
  431.0000      0.0457
  432.0000      0.0454
  433.0000      0.0453
  434.0000      0.0450
  435.0000      0.0447
  436.0000      0.0445
  437.0000      0.0443
  438.0000      0.0440
  439.0000      0.0439
  440.0000      0.0436
  441.0000      0.0435
  442.0000      0.0435
  443.0000      0.0432
  444.0000      0.0431
  445.0000      0.0430
  446.0000      0.0429
  447.0000      0.0427
  448.0000      0.0427
  449.0000      0.0425
  450.0000      0.0425
  451.0000      0.0423
  452.0000      0.0422
  453.0000      0.0420
  454.0000      0.0420
  455.0000      0.0420
  456.0000      0.0419
  457.0000      0.0419
  458.0000      0.0418
  459.0000      0.0417
  460.0000      0.0415
  461.0000      0.0415
  462.0000      0.0414
  463.0000      0.0413
  464.0000      0.0412
  465.0000      0.0412
  466.0000      0.0411
  467.0000      0.0410
  468.0000      0.0409
  469.0000      0.0408
  470.0000      0.0406
  471.0000      0.0404
  472.0000      0.0401
  473.0000      0.0399
  474.0000      0.0397
  475.0000      0.0394
  476.0000      0.0392
  477.0000      0.0391
  478.0000      0.0389
  479.0000      0.0387
  480.0000      0.0385
  481.0000      0.0383
  482.0000      0.0381
  483.0000      0.0379
  484.0000      0.0377
  485.0000      0.0374
  486.0000      0.0373
  487.0000      0.0371
  488.0000      0.0369
  489.0000      0.0367
  490.0000      0.0365
  491.0000      0.0364
  492.0000      0.0362
  493.0000      0.0360
  494.0000      0.0358
  495.0000      0.0357
  496.0000      0.0356
  497.0000      0.0354
  498.0000      0.0353
  499.0000      0.0353
  500.0000      0.0352
  501.0000      0.0351
  502.0000      0.0350
  503.0000      0.0348
  504.0000      0.0345
  505.0000      0.0343
  506.0000      0.0340
  507.0000      0.0339
  508.0000      0.0339
  509.0000      0.0339
  510.0000      0.0338
  511.0000      0.0338
  512.0000      0.0337
  513.0000      0.0337
  514.0000      0.0337
  515.0000      0.0336
  516.0000      0.0336
  517.0000      0.0336
  518.0000      0.0336
  519.0000      0.0335
  520.0000      0.0335
  521.0000      0.0335
  522.0000      0.0334
  523.0000      0.0334
  524.0000      0.0334
  525.0000      0.0334
  526.0000      0.0333
  527.0000      0.0333
  528.0000      0.0333
  529.0000      0.0333
  530.0000      0.0333
  531.0000      0.0333
  532.0000      0.0332
  533.0000      0.0332
  534.0000      0.0331
  535.0000      0.0331
  536.0000      0.0330
  537.0000      0.0331
  538.0000      0.0331
  539.0000      0.0330
  540.0000      0.0329
  541.0000      0.0327
  542.0000      0.0326
  543.0000      0.0325
  544.0000      0.0323
  545.0000      0.0323
  546.0000      0.0323
  547.0000      0.0323
  548.0000      0.0321
  549.0000      0.0320
  550.0000      0.0318
  551.0000      0.0316
  552.0000      0.0315
  553.0000      0.0314
  554.0000      0.0314
  555.0000      0.0314
  556.0000      0.0315
  557.0000      0.0318
  558.0000      0.0318
  559.0000      0.0318
  560.0000      0.0318
  561.0000      0.0317
  562.0000      0.0317
  563.0000      0.0317
  564.0000      0.0316
  565.0000      0.0315
  566.0000      0.0315
  567.0000      0.0315
  568.0000      0.0314
  569.0000      0.0313
  570.0000      0.0312
  571.0000      0.0310
  572.0000      0.0308
  573.0000      0.0307
  574.0000      0.0306
  575.0000      0.0305
  576.0000      0.0304
  577.0000      0.0303
  578.0000      0.0302
  579.0000      0.0301
  580.0000      0.0300
  581.0000      0.0299
  582.0000      0.0298
  583.0000      0.0298
  584.0000      0.0297
  585.0000      0.0297
  586.0000      0.0296
  587.0000      0.0296
  588.0000      0.0296
  589.0000      0.0296
  590.0000      0.0295
  591.0000      0.0294
  592.0000      0.0293
  593.0000      0.0293
  594.0000      0.0293
  595.0000      0.0293
  596.0000      0.0292
  597.0000      0.0291
  598.0000      0.0290
  599.0000      0.0288
  600.0000      0.0286
  601.0000      0.0284
  602.0000      0.0284
  603.0000      0.0285
  604.0000      0.0285
  605.0000      0.0285
  606.0000      0.0285
  607.0000      0.0284
  608.0000      0.0283
  609.0000      0.0283
  610.0000      0.0283
  611.0000      0.0285
  612.0000      0.0285
  613.0000      0.0285
  614.0000      0.0285
  615.0000      0.0285
  616.0000      0.0284
  617.0000      0.0284
  618.0000      0.0283
  619.0000      0.0284
  620.0000      0.0284
  621.0000      0.0284
  622.0000      0.0283
  623.0000      0.0281
  624.0000      0.0281
  625.0000      0.0280
  626.0000      0.0280
  627.0000      0.0279
  628.0000      0.0278
  629.0000      0.0278
  630.0000      0.0278
  631.0000      0.0278
  632.0000      0.0278
  633.0000      0.0279
  634.0000      0.0278
  635.0000      0.0276
  636.0000      0.0274
  637.0000      0.0272
  638.0000      0.0270
  639.0000      0.0269
  640.0000      0.0268
  641.0000      0.0267
  642.0000      0.0266
  643.0000      0.0265
  644.0000      0.0263
  645.0000      0.0262
  646.0000      0.0262
  647.0000      0.0262
  648.0000      0.0261
  649.0000      0.0262
  650.0000      0.0262
  651.0000      0.0262
  652.0000      0.0262
  653.0000      0.0261
  654.0000      0.0260
  655.0000      0.0260
  656.0000      0.0259
  657.0000      0.0258
  658.0000      0.0257
  659.0000      0.0257
  660.0000      0.0258
  661.0000      0.0258
  662.0000      0.0258
  663.0000      0.0259
  664.0000      0.0259
  665.0000      0.0259
  666.0000      0.0260
  667.0000      0.0260
  668.0000      0.0260
  669.0000      0.0262
  670.0000      0.0262
  671.0000      0.0263
  672.0000      0.0262
  673.0000      0.0262
  674.0000      0.0262
  675.0000      0.0262
  676.0000      0.0262
  677.0000      0.0263
  678.0000      0.0263
  679.0000      0.0263
  680.0000      0.0264
  681.0000      0.0264
  682.0000      0.0264
  683.0000      0.0265
  684.0000      0.0265
  685.0000      0.0264
  686.0000      0.0264
  687.0000      0.0263
  688.0000      0.0263
  689.0000      0.0263
  690.0000      0.0262
  691.0000      0.0261
  692.0000      0.0261
  693.0000      0.0259
  694.0000      0.0259
  695.0000      0.0259
  696.0000      0.0259
  697.0000      0.0259
  698.0000      0.0259
  699.0000      0.0259
  700.0000      0.0260
  701.0000      0.0261
  702.0000      0.0263
  703.0000      0.0265
  704.0000      0.0267
  705.0000      0.0268
  706.0000      0.0269
  707.0000      0.0270
  708.0000      0.0270
  709.0000      0.0269
  710.0000      0.0269
  711.0000      0.0268
  712.0000      0.0268
  713.0000      0.0267
  714.0000      0.0267
  715.0000      0.0266
  716.0000      0.0265
  717.0000      0.0264
  718.0000      0.0263
  719.0000      0.0260
  720.0000      0.0259
  721.0000      0.0257
  722.0000      0.0254
  723.0000      0.0252
  724.0000      0.0252
  725.0000      0.0250
  726.0000      0.0247
  727.0000      0.0245
  728.0000      0.0244
  729.0000      0.0242
  730.0000      0.0241
  731.0000      0.0239
  732.0000      0.0238
  733.0000      0.0238
  734.0000      0.0236
  735.0000      0.0236
  736.0000      0.0236
  737.0000      0.0236
  738.0000      0.0235
  739.0000      0.0234
  740.0000      0.0233
  741.0000      0.0232
  742.0000      0.0230
  743.0000      0.0229
  744.0000      0.0230
  745.0000      0.0229
  746.0000      0.0229
  747.0000      0.0229
  748.0000      0.0229
  749.0000      0.0229
  750.0000      0.0230
  751.0000      0.0230
  752.0000      0.0230
  753.0000      0.0231
  754.0000      0.0232
  755.0000      0.0233
  756.0000      0.0233
  757.0000      0.0233
  758.0000      0.0233
  759.0000      0.0233
  760.0000      0.0233
  761.0000      0.0232
  762.0000      0.0232
  763.0000      0.0232
  764.0000      0.0231
  765.0000      0.0231
  766.0000      0.0230
  767.0000      0.0230
  768.0000      0.0230
  769.0000      0.0229
  770.0000      0.0229
  771.0000      0.0228
  772.0000      0.0227
  773.0000      0.0226
  774.0000      0.0226
  775.0000      0.0225
  776.0000      0.0224
  777.0000      0.0224
  778.0000      0.0223
  779.0000      0.0222
  780.0000      0.0221
  781.0000      0.0220
  782.0000      0.0219
  783.0000      0.0218
  784.0000      0.0217
  785.0000      0.0216
  786.0000      0.0215
  787.0000      0.0214
  788.0000      0.0213
  789.0000      0.0212
  790.0000      0.0211
  791.0000      0.0211
  792.0000      0.0209
  793.0000      0.0209
  794.0000      0.0209
  795.0000      0.0209
  796.0000      0.0210
  797.0000      0.0210
  798.0000      0.0211
  799.0000      0.0211
  800.0000      0.0212
