Start Wavelength:    200.0000
End Wavelength:    800.0000
Read Mode:  ABS
Read Average:      0.1000
Nanometer Interval:      1.0000
Time:      0.0000

  200.0000      1.7104
  201.0000      1.7038
  202.0000      1.6651
  203.0000      1.6188
  204.0000      1.5988
  205.0000      1.5788
  206.0000      1.5422
  207.0000      1.4963
  208.0000      1.4469
  209.0000      1.4041
  210.0000      1.3476
  211.0000      1.2853
  212.0000      1.2286
  213.0000      1.1582
  214.0000      1.0927
  215.0000      1.0245
  216.0000      0.9571
  217.0000      0.8884
  218.0000      0.8235
  219.0000      0.7602
  220.0000      0.7011
  221.0000      0.6408
  222.0000      0.5877
  223.0000      0.5384
  224.0000      0.4938
  225.0000      0.4497
  226.0000      0.4127
  227.0000      0.3797
  228.0000      0.3510
  229.0000      0.3228
  230.0000      0.3000
  231.0000      0.2800
  232.0000      0.2628
  233.0000      0.2467
  234.0000      0.2335
  235.0000      0.2229
  236.0000      0.2137
  237.0000      0.2052
  238.0000      0.1986
  239.0000      0.1927
  240.0000      0.1885
  241.0000      0.1837
  242.0000      0.1798
  243.0000      0.1767
  244.0000      0.1740
  245.0000      0.1713
  246.0000      0.1690
  247.0000      0.1670
  248.0000      0.1653
  249.0000      0.1640
  250.0000      0.1622
  251.0000      0.1611
  252.0000      0.1601
  253.0000      0.1591
  254.0000      0.1578
  255.0000      0.1566
  256.0000      0.1559
  257.0000      0.1547
  258.0000      0.1535
  259.0000      0.1526
  260.0000      0.1518
  261.0000      0.1508
  262.0000      0.1496
  263.0000      0.1483
  264.0000      0.1479
  265.0000      0.1463
  266.0000      0.1444
  267.0000      0.1431
  268.0000      0.1423
  269.0000      0.1405
  270.0000      0.1391
  271.0000      0.1380
  272.0000      0.1369
  273.0000      0.1354
  274.0000      0.1341
  275.0000      0.1325
  276.0000      0.1313
  277.0000      0.1296
  278.0000      0.1284
  279.0000      0.1265
  280.0000      0.1251
  281.0000      0.1236
  282.0000      0.1212
  283.0000      0.1205
  284.0000      0.1189
  285.0000      0.1169
  286.0000      0.1154
  287.0000      0.1140
  288.0000      0.1126
  289.0000      0.1109
  290.0000      0.1091
  291.0000      0.1079
  292.0000      0.1064
  293.0000      0.1047
  294.0000      0.1027
  295.0000      0.1014
  296.0000      0.0999
  297.0000      0.0988
  298.0000      0.0969
  299.0000      0.0964
  300.0000      0.0948
  301.0000      0.0935
  302.0000      0.0925
  303.0000      0.0916
  304.0000      0.0903
  305.0000      0.0888
  306.0000      0.0875
  307.0000      0.0871
  308.0000      0.0861
  309.0000      0.0851
  310.0000      0.0839
  311.0000      0.0833
  312.0000      0.0821
  313.0000      0.0805
  314.0000      0.0794
  315.0000      0.0787
  316.0000      0.0773
  317.0000      0.0765
  318.0000      0.0757
  319.0000      0.0749
  320.0000      0.0743
  321.0000      0.0735
  322.0000      0.0715
  323.0000      0.0706
  324.0000      0.0696
  325.0000      0.0688
  326.0000      0.0682
  327.0000      0.0672
  328.0000      0.0668
  329.0000      0.0661
  330.0000      0.0656
  331.0000      0.0644
  332.0000      0.0634
  333.0000      0.0631
  334.0000      0.0625
  335.0000      0.0620
  336.0000      0.0617
  337.0000      0.0614
  338.0000      0.0608
  339.0000      0.0603
  340.0000      0.0601
  341.0000      0.0595
  342.0000      0.0588
  343.0000      0.0580
  344.0000      0.0578
  345.0000      0.0573
  346.0000      0.0568
  347.0000      0.0558
  348.0000      0.0557
  349.0000      0.0555
  350.0000      0.0547
  351.0000      0.0544
  352.0000      0.0541
  353.0000      0.0537
  354.0000      0.0530
  355.0000      0.0525
  356.0000      0.0521
  357.0000      0.0489
  358.0000      0.0473
  359.0000      0.0486
  360.0000      0.0485
  361.0000      0.0476
  362.0000      0.0479
  363.0000      0.0483
  364.0000      0.0480
  365.0000      0.0478
  366.0000      0.0460
  367.0000      0.0453
  368.0000      0.0466
  369.0000      0.0455
  370.0000      0.0437
  371.0000      0.0446
  372.0000      0.0447
  373.0000      0.0438
  374.0000      0.0435
  375.0000      0.0424
  376.0000      0.0437
  377.0000      0.0427
  378.0000      0.0428
  379.0000      0.0418
  380.0000      0.0420
  381.0000      0.0412
  382.0000      0.0402
  383.0000      0.0400
  384.0000      0.0403
  385.0000      0.0400
  386.0000      0.0398
  387.0000      0.0389
  388.0000      0.0391
  389.0000      0.0393
  390.0000      0.0386
  391.0000      0.0384
  392.0000      0.0383
  393.0000      0.0377
  394.0000      0.0371
  395.0000      0.0370
  396.0000      0.0373
  397.0000      0.0367
  398.0000      0.0360
  399.0000      0.0363
  400.0000      0.0358
  401.0000      0.0355
  402.0000      0.0354
  403.0000      0.0350
  404.0000      0.0354
  405.0000      0.0353
  406.0000      0.0350
  407.0000      0.0344
  408.0000      0.0346
  409.0000      0.0344
  410.0000      0.0338
  411.0000      0.0338
  412.0000      0.0336
  413.0000      0.0338
  414.0000      0.0337
  415.0000      0.0333
  416.0000      0.0340
  417.0000      0.0337
  418.0000      0.0335
  419.0000      0.0332
  420.0000      0.0329
  421.0000      0.0325
  422.0000      0.0323
  423.0000      0.0319
  424.0000      0.0316
  425.0000      0.0315
  426.0000      0.0312
  427.0000      0.0310
  428.0000      0.0307
  429.0000      0.0304
  430.0000      0.0302
  431.0000      0.0298
  432.0000      0.0296
  433.0000      0.0294
  434.0000      0.0292
  435.0000      0.0289
  436.0000      0.0286
  437.0000      0.0283
  438.0000      0.0281
  439.0000      0.0277
  440.0000      0.0275
  441.0000      0.0274
  442.0000      0.0272
  443.0000      0.0271
  444.0000      0.0269
  445.0000      0.0268
  446.0000      0.0268
  447.0000      0.0267
  448.0000      0.0265
  449.0000      0.0263
  450.0000      0.0262
  451.0000      0.0260
  452.0000      0.0259
  453.0000      0.0257
  454.0000      0.0256
  455.0000      0.0255
  456.0000      0.0254
  457.0000      0.0254
  458.0000      0.0252
  459.0000      0.0251
  460.0000      0.0250
  461.0000      0.0250
  462.0000      0.0249
  463.0000      0.0249
  464.0000      0.0249
  465.0000      0.0248
  466.0000      0.0247
  467.0000      0.0246
  468.0000      0.0245
  469.0000      0.0243
  470.0000      0.0241
  471.0000      0.0239
  472.0000      0.0238
  473.0000      0.0238
  474.0000      0.0238
  475.0000      0.0237
  476.0000      0.0237
  477.0000      0.0236
  478.0000      0.0235
  479.0000      0.0236
  480.0000      0.0236
  481.0000      0.0237
  482.0000      0.0238
  483.0000      0.0238
  484.0000      0.0239
  485.0000      0.0239
  486.0000      0.0239
  487.0000      0.0240
  488.0000      0.0239
  489.0000      0.0239
  490.0000      0.0239
  491.0000      0.0238
  492.0000      0.0237
  493.0000      0.0236
  494.0000      0.0236
  495.0000      0.0235
  496.0000      0.0235
  497.0000      0.0234
  498.0000      0.0233
  499.0000      0.0232
  500.0000      0.0231
  501.0000      0.0230
  502.0000      0.0229
  503.0000      0.0228
  504.0000      0.0227
  505.0000      0.0225
  506.0000      0.0224
  507.0000      0.0223
  508.0000      0.0222
  509.0000      0.0222
  510.0000      0.0222
  511.0000      0.0222
  512.0000      0.0222
  513.0000      0.0222
  514.0000      0.0220
  515.0000      0.0218
  516.0000      0.0217
  517.0000      0.0214
  518.0000      0.0212
  519.0000      0.0210
  520.0000      0.0209
  521.0000      0.0208
  522.0000      0.0206
  523.0000      0.0206
  524.0000      0.0206
  525.0000      0.0206
  526.0000      0.0204
  527.0000      0.0203
  528.0000      0.0203
  529.0000      0.0202
  530.0000      0.0201
  531.0000      0.0200
  532.0000      0.0200
  533.0000      0.0198
  534.0000      0.0198
  535.0000      0.0197
  536.0000      0.0197
  537.0000      0.0195
  538.0000      0.0193
  539.0000      0.0190
  540.0000      0.0189
  541.0000      0.0188
  542.0000      0.0186
  543.0000      0.0185
  544.0000      0.0185
  545.0000      0.0184
  546.0000      0.0183
  547.0000      0.0181
  548.0000      0.0180
  549.0000      0.0180
  550.0000      0.0178
  551.0000      0.0178
  552.0000      0.0177
  553.0000      0.0178
  554.0000      0.0178
  555.0000      0.0178
  556.0000      0.0177
  557.0000      0.0193
  558.0000      0.0193
  559.0000      0.0193
  560.0000      0.0192
  561.0000      0.0191
  562.0000      0.0190
  563.0000      0.0189
  564.0000      0.0189
  565.0000      0.0188
  566.0000      0.0188
  567.0000      0.0188
  568.0000      0.0188
  569.0000      0.0189
  570.0000      0.0190
  571.0000      0.0189
  572.0000      0.0189
  573.0000      0.0188
  574.0000      0.0187
  575.0000      0.0186
  576.0000      0.0185
  577.0000      0.0184
  578.0000      0.0184
  579.0000      0.0183
  580.0000      0.0180
  581.0000      0.0180
  582.0000      0.0180
  583.0000      0.0180
  584.0000      0.0182
  585.0000      0.0183
  586.0000      0.0184
  587.0000      0.0186
  588.0000      0.0187
  589.0000      0.0187
  590.0000      0.0187
  591.0000      0.0186
  592.0000      0.0184
  593.0000      0.0183
  594.0000      0.0182
  595.0000      0.0181
  596.0000      0.0180
  597.0000      0.0180
  598.0000      0.0180
  599.0000      0.0179
  600.0000      0.0178
  601.0000      0.0177
  602.0000      0.0177
  603.0000      0.0176
  604.0000      0.0175
  605.0000      0.0174
  606.0000      0.0174
  607.0000      0.0173
  608.0000      0.0172
  609.0000      0.0171
  610.0000      0.0169
  611.0000      0.0168
  612.0000      0.0167
  613.0000      0.0165
  614.0000      0.0164
  615.0000      0.0162
  616.0000      0.0161
  617.0000      0.0160
  618.0000      0.0159
  619.0000      0.0159
  620.0000      0.0158
  621.0000      0.0158
  622.0000      0.0157
  623.0000      0.0157
  624.0000      0.0158
  625.0000      0.0158
  626.0000      0.0157
  627.0000      0.0157
  628.0000      0.0157
  629.0000      0.0156
  630.0000      0.0156
  631.0000      0.0156
  632.0000      0.0155
  633.0000      0.0155
  634.0000      0.0155
  635.0000      0.0155
  636.0000      0.0156
  637.0000      0.0157
  638.0000      0.0158
  639.0000      0.0158
  640.0000      0.0158
  641.0000      0.0159
  642.0000      0.0159
  643.0000      0.0159
  644.0000      0.0160
  645.0000      0.0160
  646.0000      0.0161
  647.0000      0.0161
  648.0000      0.0162
  649.0000      0.0163
  650.0000      0.0163
  651.0000      0.0163
  652.0000      0.0163
  653.0000      0.0163
  654.0000      0.0163
  655.0000      0.0162
  656.0000      0.0162
  657.0000      0.0162
  658.0000      0.0161
  659.0000      0.0161
  660.0000      0.0161
  661.0000      0.0161
  662.0000      0.0160
  663.0000      0.0159
  664.0000      0.0159
  665.0000      0.0158
  666.0000      0.0157
  667.0000      0.0156
  668.0000      0.0155
  669.0000      0.0155
  670.0000      0.0155
  671.0000      0.0156
  672.0000      0.0156
  673.0000      0.0156
  674.0000      0.0156
  675.0000      0.0156
  676.0000      0.0156
  677.0000      0.0156
  678.0000      0.0156
  679.0000      0.0155
  680.0000      0.0156
  681.0000      0.0157
  682.0000      0.0157
  683.0000      0.0157
  684.0000      0.0157
  685.0000      0.0157
  686.0000      0.0157
  687.0000      0.0157
  688.0000      0.0157
  689.0000      0.0157
  690.0000      0.0156
  691.0000      0.0155
  692.0000      0.0154
  693.0000      0.0153
  694.0000      0.0152
  695.0000      0.0152
  696.0000      0.0151
  697.0000      0.0151
  698.0000      0.0150
  699.0000      0.0150
  700.0000      0.0150
  701.0000      0.0149
  702.0000      0.0149
  703.0000      0.0148
  704.0000      0.0148
  705.0000      0.0147
  706.0000      0.0146
  707.0000      0.0145
  708.0000      0.0144
  709.0000      0.0143
  710.0000      0.0142
  711.0000      0.0142
  712.0000      0.0141
  713.0000      0.0140
  714.0000      0.0140
  715.0000      0.0138
  716.0000      0.0137
  717.0000      0.0136
  718.0000      0.0134
  719.0000      0.0132
  720.0000      0.0131
  721.0000      0.0130
  722.0000      0.0129
  723.0000      0.0127
  724.0000      0.0126
  725.0000      0.0126
  726.0000      0.0125
  727.0000      0.0124
  728.0000      0.0123
  729.0000      0.0122
  730.0000      0.0122
  731.0000      0.0121
  732.0000      0.0122
  733.0000      0.0121
  734.0000      0.0121
  735.0000      0.0122
  736.0000      0.0123
  737.0000      0.0121
  738.0000      0.0119
  739.0000      0.0118
  740.0000      0.0117
  741.0000      0.0116
  742.0000      0.0115
  743.0000      0.0114
  744.0000      0.0114
  745.0000      0.0113
  746.0000      0.0112
  747.0000      0.0111
  748.0000      0.0111
  749.0000      0.0110
  750.0000      0.0110
  751.0000      0.0110
  752.0000      0.0111
  753.0000      0.0111
  754.0000      0.0112
  755.0000      0.0112
  756.0000      0.0113
  757.0000      0.0113
  758.0000      0.0113
  759.0000      0.0114
  760.0000      0.0114
  761.0000      0.0115
  762.0000      0.0115
  763.0000      0.0115
  764.0000      0.0116
  765.0000      0.0117
  766.0000      0.0117
  767.0000      0.0118
  768.0000      0.0118
  769.0000      0.0119
  770.0000      0.0120
  771.0000      0.0120
  772.0000      0.0120
  773.0000      0.0120
  774.0000      0.0122
  775.0000      0.0122
  776.0000      0.0122
  777.0000      0.0122
  778.0000      0.0123
  779.0000      0.0123
  780.0000      0.0124
  781.0000      0.0124
  782.0000      0.0124
  783.0000      0.0124
  784.0000      0.0124
  785.0000      0.0124
  786.0000      0.0124
  787.0000      0.0123
  788.0000      0.0123
  789.0000      0.0123
  790.0000      0.0123
  791.0000      0.0123
  792.0000      0.0123
  793.0000      0.0123
  794.0000      0.0121
  795.0000      0.0120
  796.0000      0.0119
  797.0000      0.0118
  798.0000      0.0117
  799.0000      0.0115
  800.0000      0.0115
