Start Wavelength:    200.0000
End Wavelength:    800.0000
Read Mode:  ABS
Read Average:      0.1000
Nanometer Interval:      1.0000
Time:      0.0000

  200.0000      1.2434
  201.0000      1.1914
  202.0000      1.1553
  203.0000      1.1243
  204.0000      1.0969
  205.0000      1.0625
  206.0000      1.0355
  207.0000      1.0084
  208.0000      0.9756
  209.0000      0.9400
  210.0000      0.9086
  211.0000      0.8742
  212.0000      0.8367
  213.0000      0.7958
  214.0000      0.7577
  215.0000      0.7202
  216.0000      0.6819
  217.0000      0.6413
  218.0000      0.6044
  219.0000      0.5689
  220.0000      0.5358
  221.0000      0.5005
  222.0000      0.4703
  223.0000      0.4423
  224.0000      0.4164
  225.0000      0.3910
  226.0000      0.3690
  227.0000      0.3494
  228.0000      0.3315
  229.0000      0.3138
  230.0000      0.2995
  231.0000      0.2870
  232.0000      0.2758
  233.0000      0.2643
  234.0000      0.2556
  235.0000      0.2480
  236.0000      0.2413
  237.0000      0.2342
  238.0000      0.2288
  239.0000      0.2238
  240.0000      0.2200
  241.0000      0.2159
  242.0000      0.2128
  243.0000      0.2102
  244.0000      0.2073
  245.0000      0.2047
  246.0000      0.2024
  247.0000      0.2005
  248.0000      0.1983
  249.0000      0.1962
  250.0000      0.1943
  251.0000      0.1927
  252.0000      0.1913
  253.0000      0.1897
  254.0000      0.1879
  255.0000      0.1864
  256.0000      0.1852
  257.0000      0.1838
  258.0000      0.1825
  259.0000      0.1810
  260.0000      0.1796
  261.0000      0.1783
  262.0000      0.1771
  263.0000      0.1757
  264.0000      0.1740
  265.0000      0.1722
  266.0000      0.1707
  267.0000      0.1693
  268.0000      0.1680
  269.0000      0.1668
  270.0000      0.1649
  271.0000      0.1635
  272.0000      0.1620
  273.0000      0.1610
  274.0000      0.1588
  275.0000      0.1575
  276.0000      0.1561
  277.0000      0.1546
  278.0000      0.1530
  279.0000      0.1510
  280.0000      0.1496
  281.0000      0.1486
  282.0000      0.1462
  283.0000      0.1449
  284.0000      0.1436
  285.0000      0.1411
  286.0000      0.1397
  287.0000      0.1379
  288.0000      0.1357
  289.0000      0.1340
  290.0000      0.1320
  291.0000      0.1301
  292.0000      0.1290
  293.0000      0.1272
  294.0000      0.1255
  295.0000      0.1237
  296.0000      0.1224
  297.0000      0.1208
  298.0000      0.1189
  299.0000      0.1177
  300.0000      0.1159
  301.0000      0.1142
  302.0000      0.1127
  303.0000      0.1119
  304.0000      0.1104
  305.0000      0.1086
  306.0000      0.1073
  307.0000      0.1059
  308.0000      0.1050
  309.0000      0.1040
  310.0000      0.1028
  311.0000      0.1011
  312.0000      0.1006
  313.0000      0.0993
  314.0000      0.0985
  315.0000      0.0969
  316.0000      0.0955
  317.0000      0.0948
  318.0000      0.0942
  319.0000      0.0937
  320.0000      0.0927
  321.0000      0.0917
  322.0000      0.0917
  323.0000      0.0907
  324.0000      0.0900
  325.0000      0.0892
  326.0000      0.0882
  327.0000      0.0875
  328.0000      0.0865
  329.0000      0.0857
  330.0000      0.0852
  331.0000      0.0837
  332.0000      0.0834
  333.0000      0.0824
  334.0000      0.0817
  335.0000      0.0811
  336.0000      0.0800
  337.0000      0.0795
  338.0000      0.0783
  339.0000      0.0780
  340.0000      0.0778
  341.0000      0.0768
  342.0000      0.0762
  343.0000      0.0752
  344.0000      0.0747
  345.0000      0.0743
  346.0000      0.0738
  347.0000      0.0727
  348.0000      0.0720
  349.0000      0.0719
  350.0000      0.0714
  351.0000      0.0705
  352.0000      0.0699
  353.0000      0.0692
  354.0000      0.0685
  355.0000      0.0683
  356.0000      0.0677
  357.0000      0.0677
  358.0000      0.0665
  359.0000      0.0660
  360.0000      0.0685
  361.0000      0.0659
  362.0000      0.0647
  363.0000      0.0648
  364.0000      0.0645
  365.0000      0.0640
  366.0000      0.0644
  367.0000      0.0629
  368.0000      0.0633
  369.0000      0.0630
  370.0000      0.0614
  371.0000      0.0621
  372.0000      0.0615
  373.0000      0.0597
  374.0000      0.0604
  375.0000      0.0602
  376.0000      0.0595
  377.0000      0.0590
  378.0000      0.0588
  379.0000      0.0582
  380.0000      0.0582
  381.0000      0.0581
  382.0000      0.0566
  383.0000      0.0563
  384.0000      0.0573
  385.0000      0.0564
  386.0000      0.0553
  387.0000      0.0553
  388.0000      0.0549
  389.0000      0.0548
  390.0000      0.0549
  391.0000      0.0544
  392.0000      0.0537
  393.0000      0.0535
  394.0000      0.0532
  395.0000      0.0532
  396.0000      0.0525
  397.0000      0.0525
  398.0000      0.0522
  399.0000      0.0518
  400.0000      0.0515
  401.0000      0.0510
  402.0000      0.0509
  403.0000      0.0510
  404.0000      0.0508
  405.0000      0.0504
  406.0000      0.0497
  407.0000      0.0497
  408.0000      0.0498
  409.0000      0.0495
  410.0000      0.0490
  411.0000      0.0488
  412.0000      0.0488
  413.0000      0.0485
  414.0000      0.0483
  415.0000      0.0477
  416.0000      0.0466
  417.0000      0.0464
  418.0000      0.0462
  419.0000      0.0458
  420.0000      0.0456
  421.0000      0.0454
  422.0000      0.0452
  423.0000      0.0450
  424.0000      0.0447
  425.0000      0.0447
  426.0000      0.0447
  427.0000      0.0448
  428.0000      0.0448
  429.0000      0.0447
  430.0000      0.0444
  431.0000      0.0442
  432.0000      0.0441
  433.0000      0.0437
  434.0000      0.0436
  435.0000      0.0432
  436.0000      0.0430
  437.0000      0.0427
  438.0000      0.0423
  439.0000      0.0420
  440.0000      0.0418
  441.0000      0.0414
  442.0000      0.0412
  443.0000      0.0410
  444.0000      0.0410
  445.0000      0.0408
  446.0000      0.0407
  447.0000      0.0405
  448.0000      0.0404
  449.0000      0.0404
  450.0000      0.0403
  451.0000      0.0403
  452.0000      0.0402
  453.0000      0.0400
  454.0000      0.0398
  455.0000      0.0396
  456.0000      0.0393
  457.0000      0.0392
  458.0000      0.0390
  459.0000      0.0388
  460.0000      0.0387
  461.0000      0.0385
  462.0000      0.0383
  463.0000      0.0381
  464.0000      0.0380
  465.0000      0.0380
  466.0000      0.0379
  467.0000      0.0378
  468.0000      0.0377
  469.0000      0.0375
  470.0000      0.0374
  471.0000      0.0373
  472.0000      0.0371
  473.0000      0.0369
  474.0000      0.0368
  475.0000      0.0366
  476.0000      0.0365
  477.0000      0.0362
  478.0000      0.0360
  479.0000      0.0359
  480.0000      0.0357
  481.0000      0.0355
  482.0000      0.0354
  483.0000      0.0352
  484.0000      0.0351
  485.0000      0.0351
  486.0000      0.0350
  487.0000      0.0349
  488.0000      0.0348
  489.0000      0.0347
  490.0000      0.0346
  491.0000      0.0345
  492.0000      0.0344
  493.0000      0.0343
  494.0000      0.0342
  495.0000      0.0341
  496.0000      0.0341
  497.0000      0.0341
  498.0000      0.0340
  499.0000      0.0339
  500.0000      0.0339
  501.0000      0.0337
  502.0000      0.0337
  503.0000      0.0336
  504.0000      0.0335
  505.0000      0.0335
  506.0000      0.0335
  507.0000      0.0335
  508.0000      0.0335
  509.0000      0.0335
  510.0000      0.0335
  511.0000      0.0334
  512.0000      0.0334
  513.0000      0.0333
  514.0000      0.0332
  515.0000      0.0331
  516.0000      0.0331
  517.0000      0.0330
  518.0000      0.0330
  519.0000      0.0329
  520.0000      0.0329
  521.0000      0.0328
  522.0000      0.0328
  523.0000      0.0328
  524.0000      0.0328
  525.0000      0.0328
  526.0000      0.0328
  527.0000      0.0328
  528.0000      0.0328
  529.0000      0.0328
  530.0000      0.0327
  531.0000      0.0327
  532.0000      0.0327
  533.0000      0.0326
  534.0000      0.0324
  535.0000      0.0323
  536.0000      0.0322
  537.0000      0.0319
  538.0000      0.0316
  539.0000      0.0311
  540.0000      0.0307
  541.0000      0.0305
  542.0000      0.0304
  543.0000      0.0304
  544.0000      0.0303
  545.0000      0.0303
  546.0000      0.0302
  547.0000      0.0302
  548.0000      0.0301
  549.0000      0.0261
  550.0000      0.0299
  551.0000      0.0298
  552.0000      0.0298
  553.0000      0.0297
  554.0000      0.0297
  555.0000      0.0296
  556.0000      0.0296
  557.0000      0.0292
  558.0000      0.0291
  559.0000      0.0291
  560.0000      0.0290
  561.0000      0.0289
  562.0000      0.0289
  563.0000      0.0288
  564.0000      0.0288
  565.0000      0.0287
  566.0000      0.0287
  567.0000      0.0287
  568.0000      0.0287
  569.0000      0.0287
  570.0000      0.0286
  571.0000      0.0286
  572.0000      0.0285
  573.0000      0.0285
  574.0000      0.0284
  575.0000      0.0283
  576.0000      0.0282
  577.0000      0.0282
  578.0000      0.0281
  579.0000      0.0280
  580.0000      0.0280
  581.0000      0.0279
  582.0000      0.0279
  583.0000      0.0278
  584.0000      0.0278
  585.0000      0.0277
  586.0000      0.0277
  587.0000      0.0277
  588.0000      0.0276
  589.0000      0.0276
  590.0000      0.0275
  591.0000      0.0274
  592.0000      0.0274
  593.0000      0.0272
  594.0000      0.0271
  595.0000      0.0270
  596.0000      0.0269
  597.0000      0.0268
  598.0000      0.0266
  599.0000      0.0265
  600.0000      0.0265
  601.0000      0.0264
  602.0000      0.0264
  603.0000      0.0263
  604.0000      0.0261
  605.0000      0.0260
  606.0000      0.0260
  607.0000      0.0259
  608.0000      0.0259
  609.0000      0.0257
  610.0000      0.0257
  611.0000      0.0256
  612.0000      0.0257
  613.0000      0.0256
  614.0000      0.0255
  615.0000      0.0255
  616.0000      0.0294
  617.0000      0.0255
  618.0000      0.0255
  619.0000      0.0255
  620.0000      0.0255
  621.0000      0.0254
  622.0000      0.0253
  623.0000      0.0253
  624.0000      0.0252
  625.0000      0.0251
  626.0000      0.0250
  627.0000      0.0249
  628.0000      0.0249
  629.0000      0.0249
  630.0000      0.0248
  631.0000      0.0248
  632.0000      0.0248
  633.0000      0.0248
  634.0000      0.0249
  635.0000      0.0249
  636.0000      0.0248
  637.0000      0.0248
  638.0000      0.0247
  639.0000      0.0247
  640.0000      0.0246
  641.0000      0.0245
  642.0000      0.0245
  643.0000      0.0245
  644.0000      0.0244
  645.0000      0.0244
  646.0000      0.0243
  647.0000      0.0243
  648.0000      0.0242
  649.0000      0.0242
  650.0000      0.0241
  651.0000      0.0240
  652.0000      0.0239
  653.0000      0.0238
  654.0000      0.0238
  655.0000      0.0237
  656.0000      0.0236
  657.0000      0.0236
  658.0000      0.0235
  659.0000      0.0235
  660.0000      0.0234
  661.0000      0.0234
  662.0000      0.0233
  663.0000      0.0234
  664.0000      0.0234
  665.0000      0.0234
  666.0000      0.0234
  667.0000      0.0233
  668.0000      0.0233
  669.0000      0.0234
  670.0000      0.0233
  671.0000      0.0233
  672.0000      0.0233
  673.0000      0.0233
  674.0000      0.0232
  675.0000      0.0231
  676.0000      0.0230
  677.0000      0.0230
  678.0000      0.0230
  679.0000      0.0230
  680.0000      0.0230
  681.0000      0.0230
  682.0000      0.0230
  683.0000      0.0230
  684.0000      0.0229
  685.0000      0.0229
  686.0000      0.0229
  687.0000      0.0228
  688.0000      0.0228
  689.0000      0.0227
  690.0000      0.0227
  691.0000      0.0227
  692.0000      0.0226
  693.0000      0.0226
  694.0000      0.0227
  695.0000      0.0227
  696.0000      0.0227
  697.0000      0.0227
  698.0000      0.0226
  699.0000      0.0226
  700.0000      0.0226
  701.0000      0.0225
  702.0000      0.0225
  703.0000      0.0224
  704.0000      0.0224
  705.0000      0.0223
  706.0000      0.0222
  707.0000      0.0222
  708.0000      0.0222
  709.0000      0.0222
  710.0000      0.0221
  711.0000      0.0220
  712.0000      0.0219
  713.0000      0.0218
  714.0000      0.0218
  715.0000      0.0218
  716.0000      0.0218
  717.0000      0.0216
  718.0000      0.0215
  719.0000      0.0214
  720.0000      0.0214
  721.0000      0.0214
  722.0000      0.0214
  723.0000      0.0214
  724.0000      0.0214
  725.0000      0.0213
  726.0000      0.0212
  727.0000      0.0211
  728.0000      0.0211
  729.0000      0.0211
  730.0000      0.0211
  731.0000      0.0211
  732.0000      0.0210
  733.0000      0.0209
  734.0000      0.0208
  735.0000      0.0208
  736.0000      0.0201
  737.0000      0.0200
  738.0000      0.0200
  739.0000      0.0200
  740.0000      0.0200
  741.0000      0.0200
  742.0000      0.0200
  743.0000      0.0200
  744.0000      0.0200
  745.0000      0.0199
  746.0000      0.0199
  747.0000      0.0199
  748.0000      0.0198
  749.0000      0.0198
  750.0000      0.0198
  751.0000      0.0198
  752.0000      0.0199
  753.0000      0.0200
  754.0000      0.0200
  755.0000      0.0200
  756.0000      0.0201
  757.0000      0.0202
  758.0000      0.0202
  759.0000      0.0202
  760.0000      0.0203
  761.0000      0.0203
  762.0000      0.0203
  763.0000      0.0203
  764.0000      0.0204
  765.0000      0.0203
  766.0000      0.0203
  767.0000      0.0204
  768.0000      0.0204
  769.0000      0.0205
  770.0000      0.0205
  771.0000      0.0206
  772.0000      0.0206
  773.0000      0.0206
  774.0000      0.0206
  775.0000      0.0206
  776.0000      0.0207
  777.0000      0.0207
  778.0000      0.0208
  779.0000      0.0208
  780.0000      0.0208
  781.0000      0.0208
  782.0000      0.0207
  783.0000      0.0207
  784.0000      0.0206
  785.0000      0.0205
  786.0000      0.0205
  787.0000      0.0205
  788.0000      0.0205
  789.0000      0.0204
  790.0000      0.0204
  791.0000      0.0204
  792.0000      0.0203
  793.0000      0.0203
  794.0000      0.0203
  795.0000      0.0202
  796.0000      0.0201
  797.0000      0.0201
  798.0000      0.0200
  799.0000      0.0199
  800.0000      0.0198
