Start Wavelength:    200.0000
End Wavelength:    800.0000
Read Mode:  ABS
Read Average:      0.1000
Nanometer Interval:      1.0000
Time:      0.0000

  200.0000      0.5125
  201.0000      0.4716
  202.0000      0.4517
  203.0000      0.4302
  204.0000      0.4118
  205.0000      0.3963
  206.0000      0.3824
  207.0000      0.3697
  208.0000      0.3573
  209.0000      0.3458
  210.0000      0.3342
  211.0000      0.3246
  212.0000      0.3136
  213.0000      0.3038
  214.0000      0.2930
  215.0000      0.2840
  216.0000      0.2744
  217.0000      0.2652
  218.0000      0.2561
  219.0000      0.2480
  220.0000      0.2399
  221.0000      0.2315
  222.0000      0.2247
  223.0000      0.2187
  224.0000      0.2119
  225.0000      0.2053
  226.0000      0.2000
  227.0000      0.1944
  228.0000      0.1900
  229.0000      0.1851
  230.0000      0.1805
  231.0000      0.1769
  232.0000      0.1727
  233.0000      0.1689
  234.0000      0.1655
  235.0000      0.1621
  236.0000      0.1592
  237.0000      0.1563
  238.0000      0.1536
  239.0000      0.1513
  240.0000      0.1493
  241.0000      0.1473
  242.0000      0.1453
  243.0000      0.1438
  244.0000      0.1421
  245.0000      0.1405
  246.0000      0.1392
  247.0000      0.1379
  248.0000      0.1364
  249.0000      0.1347
  250.0000      0.1335
  251.0000      0.1323
  252.0000      0.1314
  253.0000      0.1303
  254.0000      0.1291
  255.0000      0.1285
  256.0000      0.1279
  257.0000      0.1264
  258.0000      0.1256
  259.0000      0.1250
  260.0000      0.1241
  261.0000      0.1229
  262.0000      0.1224
  263.0000      0.1208
  264.0000      0.1199
  265.0000      0.1181
  266.0000      0.1176
  267.0000      0.1163
  268.0000      0.1150
  269.0000      0.1139
  270.0000      0.1124
  271.0000      0.1118
  272.0000      0.1100
  273.0000      0.1085
  274.0000      0.1076
  275.0000      0.1056
  276.0000      0.1043
  277.0000      0.1023
  278.0000      0.1016
  279.0000      0.0992
  280.0000      0.0981
  281.0000      0.0963
  282.0000      0.0947
  283.0000      0.0933
  284.0000      0.0909
  285.0000      0.0896
  286.0000      0.0884
  287.0000      0.0867
  288.0000      0.0847
  289.0000      0.0839
  290.0000      0.0819
  291.0000      0.0803
  292.0000      0.0790
  293.0000      0.0777
  294.0000      0.0763
  295.0000      0.0743
  296.0000      0.0735
  297.0000      0.0722
  298.0000      0.0708
  299.0000      0.0702
  300.0000      0.0684
  301.0000      0.0676
  302.0000      0.0666
  303.0000      0.0660
  304.0000      0.0643
  305.0000      0.0641
  306.0000      0.0626
  307.0000      0.0627
  308.0000      0.0614
  309.0000      0.0611
  310.0000      0.0595
  311.0000      0.0587
  312.0000      0.0584
  313.0000      0.0573
  314.0000      0.0564
  315.0000      0.0565
  316.0000      0.0553
  317.0000      0.0553
  318.0000      0.0547
  319.0000      0.0544
  320.0000      0.0535
  321.0000      0.0540
  322.0000      0.0534
  323.0000      0.0528
  324.0000      0.0529
  325.0000      0.0515
  326.0000      0.0514
  327.0000      0.0503
  328.0000      0.0505
  329.0000      0.0498
  330.0000      0.0496
  331.0000      0.0488
  332.0000      0.0478
  333.0000      0.0479
  334.0000      0.0474
  335.0000      0.0473
  336.0000      0.0462
  337.0000      0.0464
  338.0000      0.0457
  339.0000      0.0451
  340.0000      0.0449
  341.0000      0.0442
  342.0000      0.0440
  343.0000      0.0435
  344.0000      0.0433
  345.0000      0.0430
  346.0000      0.0425
  347.0000      0.0423
  348.0000      0.0418
  349.0000      0.0422
  350.0000      0.0411
  351.0000      0.0413
  352.0000      0.0406
  353.0000      0.0406
  354.0000      0.0402
  355.0000      0.0400
  356.0000      0.0403
  357.0000      0.0426
  358.0000      0.0414
  359.0000      0.0413
  360.0000      0.0406
  361.0000      0.0399
  362.0000      0.0383
  363.0000      0.0397
  364.0000      0.0402
  365.0000      0.0391
  366.0000      0.0405
  367.0000      0.0387
  368.0000      0.0400
  369.0000      0.0374
  370.0000      0.0383
  371.0000      0.0368
  372.0000      0.0377
  373.0000      0.0377
  374.0000      0.0379
  375.0000      0.0377
  376.0000      0.0358
  377.0000      0.0355
  378.0000      0.0348
  379.0000      0.0361
  380.0000      0.0363
  381.0000      0.0359
  382.0000      0.0361
  383.0000      0.0355
  384.0000      0.0356
  385.0000      0.0348
  386.0000      0.0344
  387.0000      0.0349
  388.0000      0.0343
  389.0000      0.0349
  390.0000      0.0341
  391.0000      0.0341
  392.0000      0.0336
  393.0000      0.0336
  394.0000      0.0334
  395.0000      0.0329
  396.0000      0.0332
  397.0000      0.0328
  398.0000      0.0329
  399.0000      0.0325
  400.0000      0.0330
  401.0000      0.0328
  402.0000      0.0322
  403.0000      0.0322
  404.0000      0.0321
  405.0000      0.0315
  406.0000      0.0312
  407.0000      0.0317
  408.0000      0.0315
  409.0000      0.0312
  410.0000      0.0312
  411.0000      0.0309
  412.0000      0.0309
  413.0000      0.0312
  414.0000      0.0306
  415.0000      0.0311
  416.0000      0.0315
  417.0000      0.0313
  418.0000      0.0310
  419.0000      0.0307
  420.0000      0.0305
  421.0000      0.0302
  422.0000      0.0299
  423.0000      0.0297
  424.0000      0.0294
  425.0000      0.0292
  426.0000      0.0288
  427.0000      0.0288
  428.0000      0.0285
  429.0000      0.0284
  430.0000      0.0283
  431.0000      0.0281
  432.0000      0.0281
  433.0000      0.0282
  434.0000      0.0282
  435.0000      0.0281
  436.0000      0.0281
  437.0000      0.0280
  438.0000      0.0280
  439.0000      0.0280
  440.0000      0.0279
  441.0000      0.0279
  442.0000      0.0278
  443.0000      0.0279
  444.0000      0.0278
  445.0000      0.0278
  446.0000      0.0278
  447.0000      0.0278
  448.0000      0.0278
  449.0000      0.0277
  450.0000      0.0277
  451.0000      0.0276
  452.0000      0.0275
  453.0000      0.0274
  454.0000      0.0273
  455.0000      0.0271
  456.0000      0.0271
  457.0000      0.0269
  458.0000      0.0269
  459.0000      0.0270
  460.0000      0.0272
  461.0000      0.0275
  462.0000      0.0277
  463.0000      0.0279
  464.0000      0.0280
  465.0000      0.0281
  466.0000      0.0281
  467.0000      0.0280
  468.0000      0.0280
  469.0000      0.0279
  470.0000      0.0278
  471.0000      0.0277
  472.0000      0.0276
  473.0000      0.0276
  474.0000      0.0273
  475.0000      0.0271
  476.0000      0.0269
  477.0000      0.0267
  478.0000      0.0264
  479.0000      0.0262
  480.0000      0.0260
  481.0000      0.0257
  482.0000      0.0254
  483.0000      0.0253
  484.0000      0.0250
  485.0000      0.0249
  486.0000      0.0249
  487.0000      0.0248
  488.0000      0.0247
  489.0000      0.0245
  490.0000      0.0243
  491.0000      0.0241
  492.0000      0.0238
  493.0000      0.0236
  494.0000      0.0234
  495.0000      0.0233
  496.0000      0.0231
  497.0000      0.0230
  498.0000      0.0230
  499.0000      0.0228
  500.0000      0.0228
  501.0000      0.0226
  502.0000      0.0226
  503.0000      0.0226
  504.0000      0.0225
  505.0000      0.0224
  506.0000      0.0223
  507.0000      0.0222
  508.0000      0.0222
  509.0000      0.0221
  510.0000      0.0220
  511.0000      0.0219
  512.0000      0.0218
  513.0000      0.0218
  514.0000      0.0218
  515.0000      0.0217
  516.0000      0.0217
  517.0000      0.0217
  518.0000      0.0216
  519.0000      0.0216
  520.0000      0.0215
  521.0000      0.0215
  522.0000      0.0213
  523.0000      0.0212
  524.0000      0.0210
  525.0000      0.0209
  526.0000      0.0208
  527.0000      0.0207
  528.0000      0.0206
  529.0000      0.0203
  530.0000      0.0203
  531.0000      0.0202
  532.0000      0.0201
  533.0000      0.0200
  534.0000      0.0199
  535.0000      0.0198
  536.0000      0.0197
  537.0000      0.0196
  538.0000      0.0195
  539.0000      0.0195
  540.0000      0.0194
  541.0000      0.0194
  542.0000      0.0193
  543.0000      0.0192
  544.0000      0.0190
  545.0000      0.0189
  546.0000      0.0188
  547.0000      0.0188
  548.0000      0.0187
  549.0000      0.0188
  550.0000      0.0188
  551.0000      0.0187
  552.0000      0.0187
  553.0000      0.0186
  554.0000      0.0185
  555.0000      0.0186
  556.0000      0.0186
  557.0000      0.0189
  558.0000      0.0188
  559.0000      0.0187
  560.0000      0.0185
  561.0000      0.0183
  562.0000      0.0180
  563.0000      0.0179
  564.0000      0.0178
  565.0000      0.0177
  566.0000      0.0176
  567.0000      0.0177
  568.0000      0.0177
  569.0000      0.0180
  570.0000      0.0181
  571.0000      0.0181
  572.0000      0.0180
  573.0000      0.0180
  574.0000      0.0179
  575.0000      0.0179
  576.0000      0.0180
  577.0000      0.0180
  578.0000      0.0180
  579.0000      0.0180
  580.0000      0.0179
  581.0000      0.0179
  582.0000      0.0177
  583.0000      0.0176
  584.0000      0.0175
  585.0000      0.0174
  586.0000      0.0173
  587.0000      0.0174
  588.0000      0.0174
  589.0000      0.0174
  590.0000      0.0175
  591.0000      0.0175
  592.0000      0.0176
  593.0000      0.0176
  594.0000      0.0175
  595.0000      0.0175
  596.0000      0.0174
  597.0000      0.0174
  598.0000      0.0173
  599.0000      0.0171
  600.0000      0.0170
  601.0000      0.0170
  602.0000      0.0171
  603.0000      0.0171
  604.0000      0.0172
  605.0000      0.0171
  606.0000      0.0170
  607.0000      0.0170
  608.0000      0.0169
  609.0000      0.0168
  610.0000      0.0167
  611.0000      0.0166
  612.0000      0.0165
  613.0000      0.0164
  614.0000      0.0162
  615.0000      0.0160
  616.0000      0.0158
  617.0000      0.0158
  618.0000      0.0157
  619.0000      0.0156
  620.0000      0.0156
  621.0000      0.0156
  622.0000      0.0155
  623.0000      0.0155
  624.0000      0.0155
  625.0000      0.0154
  626.0000      0.0154
  627.0000      0.0154
  628.0000      0.0154
  629.0000      0.0153
  630.0000      0.0154
  631.0000      0.0153
  632.0000      0.0153
  633.0000      0.0152
  634.0000      0.0152
  635.0000      0.0151
  636.0000      0.0150
  637.0000      0.0149
  638.0000      0.0149
  639.0000      0.0150
  640.0000      0.0150
  641.0000      0.0151
  642.0000      0.0151
  643.0000      0.0152
  644.0000      0.0153
  645.0000      0.0153
  646.0000      0.0153
  647.0000      0.0154
  648.0000      0.0153
  649.0000      0.0154
  650.0000      0.0154
  651.0000      0.0154
  652.0000      0.0155
  653.0000      0.0155
  654.0000      0.0156
  655.0000      0.0156
  656.0000      0.0156
  657.0000      0.0156
  658.0000      0.0157
  659.0000      0.0157
  660.0000      0.0157
  661.0000      0.0157
  662.0000      0.0157
  663.0000      0.0157
  664.0000      0.0157
  665.0000      0.0157
  666.0000      0.0157
  667.0000      0.0158
  668.0000      0.0158
  669.0000      0.0159
  670.0000      0.0160
  671.0000      0.0161
  672.0000      0.0161
  673.0000      0.0162
  674.0000      0.0162
  675.0000      0.0162
  676.0000      0.0162
  677.0000      0.0163
  678.0000      0.0163
  679.0000      0.0164
  680.0000      0.0164
  681.0000      0.0165
  682.0000      0.0166
  683.0000      0.0166
  684.0000      0.0166
  685.0000      0.0166
  686.0000      0.0166
  687.0000      0.0167
  688.0000      0.0167
  689.0000      0.0167
  690.0000      0.0166
  691.0000      0.0165
  692.0000      0.0164
  693.0000      0.0163
  694.0000      0.0162
  695.0000      0.0162
  696.0000      0.0161
  697.0000      0.0161
  698.0000      0.0161
  699.0000      0.0160
  700.0000      0.0160
  701.0000      0.0159
  702.0000      0.0158
  703.0000      0.0157
  704.0000      0.0157
  705.0000      0.0156
  706.0000      0.0155
  707.0000      0.0155
  708.0000      0.0154
  709.0000      0.0154
  710.0000      0.0154
  711.0000      0.0154
  712.0000      0.0153
  713.0000      0.0153
  714.0000      0.0152
  715.0000      0.0152
  716.0000      0.0151
  717.0000      0.0150
  718.0000      0.0149
  719.0000      0.0149
  720.0000      0.0148
  721.0000      0.0148
  722.0000      0.0148
  723.0000      0.0147
  724.0000      0.0147
  725.0000      0.0146
  726.0000      0.0145
  727.0000      0.0144
  728.0000      0.0143
  729.0000      0.0144
  730.0000      0.0143
  731.0000      0.0144
  732.0000      0.0144
  733.0000      0.0143
  734.0000      0.0144
  735.0000      0.0145
  736.0000      0.0149
  737.0000      0.0148
  738.0000      0.0147
  739.0000      0.0148
  740.0000      0.0147
  741.0000      0.0147
  742.0000      0.0148
  743.0000      0.0148
  744.0000      0.0148
  745.0000      0.0149
  746.0000      0.0150
  747.0000      0.0151
  748.0000      0.0151
  749.0000      0.0153
  750.0000      0.0153
  751.0000      0.0155
  752.0000      0.0155
  753.0000      0.0155
  754.0000      0.0157
  755.0000      0.0158
  756.0000      0.0157
  757.0000      0.0157
  758.0000      0.0158
  759.0000      0.0158
  760.0000      0.0159
  761.0000      0.0159
  762.0000      0.0159
  763.0000      0.0159
  764.0000      0.0158
  765.0000      0.0159
  766.0000      0.0158
  767.0000      0.0157
  768.0000      0.0156
  769.0000      0.0155
  770.0000      0.0155
  771.0000      0.0154
  772.0000      0.0153
  773.0000      0.0152
  774.0000      0.0152
  775.0000      0.0152
  776.0000      0.0151
  777.0000      0.0150
  778.0000      0.0150
  779.0000      0.0148
  780.0000      0.0146
  781.0000      0.0146
  782.0000      0.0146
  783.0000      0.0144
  784.0000      0.0144
  785.0000      0.0143
  786.0000      0.0142
  787.0000      0.0141
  788.0000      0.0140
  789.0000      0.0139
  790.0000      0.0138
  791.0000      0.0136
  792.0000      0.0136
  793.0000      0.0133
  794.0000      0.0132
  795.0000      0.0132
  796.0000      0.0131
  797.0000      0.0129
  798.0000      0.0128
  799.0000      0.0128
  800.0000      0.0127
