Start Wavelength:    200.0000
End Wavelength:    800.0000
Read Mode:  ABS
Read Average:      0.1000
Nanometer Interval:      1.0000
Time:      0.0000

  200.0000      0.4875
  201.0000      0.4451
  202.0000      0.4225
  203.0000      0.4021
  204.0000      0.3834
  205.0000      0.3669
  206.0000      0.3535
  207.0000      0.3421
  208.0000      0.3302
  209.0000      0.3182
  210.0000      0.3088
  211.0000      0.2999
  212.0000      0.2901
  213.0000      0.2810
  214.0000      0.2719
  215.0000      0.2646
  216.0000      0.2565
  217.0000      0.2492
  218.0000      0.2418
  219.0000      0.2355
  220.0000      0.2286
  221.0000      0.2225
  222.0000      0.2170
  223.0000      0.2114
  224.0000      0.2058
  225.0000      0.2001
  226.0000      0.1959
  227.0000      0.1908
  228.0000      0.1870
  229.0000      0.1824
  230.0000      0.1782
  231.0000      0.1747
  232.0000      0.1707
  233.0000      0.1667
  234.0000      0.1638
  235.0000      0.1603
  236.0000      0.1578
  237.0000      0.1546
  238.0000      0.1520
  239.0000      0.1498
  240.0000      0.1480
  241.0000      0.1459
  242.0000      0.1443
  243.0000      0.1428
  244.0000      0.1410
  245.0000      0.1395
  246.0000      0.1393
  247.0000      0.1372
  248.0000      0.1366
  249.0000      0.1358
  250.0000      0.1345
  251.0000      0.1341
  252.0000      0.1331
  253.0000      0.1324
  254.0000      0.1314
  255.0000      0.1306
  256.0000      0.1301
  257.0000      0.1286
  258.0000      0.1282
  259.0000      0.1271
  260.0000      0.1263
  261.0000      0.1256
  262.0000      0.1246
  263.0000      0.1232
  264.0000      0.1225
  265.0000      0.1211
  266.0000      0.1209
  267.0000      0.1199
  268.0000      0.1184
  269.0000      0.1172
  270.0000      0.1158
  271.0000      0.1159
  272.0000      0.1137
  273.0000      0.1131
  274.0000      0.1115
  275.0000      0.1096
  276.0000      0.1086
  277.0000      0.1069
  278.0000      0.1054
  279.0000      0.1041
  280.0000      0.1022
  281.0000      0.1008
  282.0000      0.0997
  283.0000      0.0986
  284.0000      0.0962
  285.0000      0.0953
  286.0000      0.0940
  287.0000      0.0923
  288.0000      0.0900
  289.0000      0.0894
  290.0000      0.0868
  291.0000      0.0851
  292.0000      0.0845
  293.0000      0.0826
  294.0000      0.0818
  295.0000      0.0796
  296.0000      0.0789
  297.0000      0.0771
  298.0000      0.0765
  299.0000      0.0749
  300.0000      0.0739
  301.0000      0.0724
  302.0000      0.0721
  303.0000      0.0703
  304.0000      0.0690
  305.0000      0.0685
  306.0000      0.0676
  307.0000      0.0671
  308.0000      0.0660
  309.0000      0.0649
  310.0000      0.0648
  311.0000      0.0633
  312.0000      0.0628
  313.0000      0.0618
  314.0000      0.0609
  315.0000      0.0608
  316.0000      0.0598
  317.0000      0.0596
  318.0000      0.0595
  319.0000      0.0586
  320.0000      0.0574
  321.0000      0.0581
  322.0000      0.0546
  323.0000      0.0541
  324.0000      0.0537
  325.0000      0.0529
  326.0000      0.0530
  327.0000      0.0520
  328.0000      0.0520
  329.0000      0.0511
  330.0000      0.0512
  331.0000      0.0502
  332.0000      0.0497
  333.0000      0.0496
  334.0000      0.0493
  335.0000      0.0493
  336.0000      0.0483
  337.0000      0.0486
  338.0000      0.0478
  339.0000      0.0475
  340.0000      0.0473
  341.0000      0.0469
  342.0000      0.0463
  343.0000      0.0464
  344.0000      0.0459
  345.0000      0.0455
  346.0000      0.0450
  347.0000      0.0451
  348.0000      0.0444
  349.0000      0.0446
  350.0000      0.0439
  351.0000      0.0439
  352.0000      0.0438
  353.0000      0.0434
  354.0000      0.0433
  355.0000      0.0428
  356.0000      0.0428
  357.0000      0.0444
  358.0000      0.0439
  359.0000      0.0445
  360.0000      0.0443
  361.0000      0.0422
  362.0000      0.0403
  363.0000      0.0419
  364.0000      0.0419
  365.0000      0.0418
  366.0000      0.0421
  367.0000      0.0428
  368.0000      0.0415
  369.0000      0.0411
  370.0000      0.0403
  371.0000      0.0400
  372.0000      0.0403
  373.0000      0.0407
  374.0000      0.0405
  375.0000      0.0406
  376.0000      0.0391
  377.0000      0.0382
  378.0000      0.0387
  379.0000      0.0389
  380.0000      0.0391
  381.0000      0.0383
  382.0000      0.0391
  383.0000      0.0378
  384.0000      0.0380
  385.0000      0.0369
  386.0000      0.0376
  387.0000      0.0373
  388.0000      0.0377
  389.0000      0.0368
  390.0000      0.0366
  391.0000      0.0368
  392.0000      0.0360
  393.0000      0.0368
  394.0000      0.0365
  395.0000      0.0364
  396.0000      0.0363
  397.0000      0.0364
  398.0000      0.0358
  399.0000      0.0362
  400.0000      0.0360
  401.0000      0.0363
  402.0000      0.0358
  403.0000      0.0364
  404.0000      0.0358
  405.0000      0.0355
  406.0000      0.0356
  407.0000      0.0360
  408.0000      0.0361
  409.0000      0.0360
  410.0000      0.0363
  411.0000      0.0358
  412.0000      0.0365
  413.0000      0.0364
  414.0000      0.0367
  415.0000      0.0367
  416.0000      0.0344
  417.0000      0.0341
  418.0000      0.0339
  419.0000      0.0335
  420.0000      0.0334
  421.0000      0.0332
  422.0000      0.0329
  423.0000      0.0329
  424.0000      0.0326
  425.0000      0.0325
  426.0000      0.0322
  427.0000      0.0322
  428.0000      0.0319
  429.0000      0.0319
  430.0000      0.0317
  431.0000      0.0316
  432.0000      0.0315
  433.0000      0.0315
  434.0000      0.0315
  435.0000      0.0314
  436.0000      0.0313
  437.0000      0.0312
  438.0000      0.0311
  439.0000      0.0309
  440.0000      0.0309
  441.0000      0.0309
  442.0000      0.0309
  443.0000      0.0309
  444.0000      0.0308
  445.0000      0.0308
  446.0000      0.0308
  447.0000      0.0308
  448.0000      0.0307
  449.0000      0.0307
  450.0000      0.0305
  451.0000      0.0304
  452.0000      0.0302
  453.0000      0.0301
  454.0000      0.0299
  455.0000      0.0297
  456.0000      0.0296
  457.0000      0.0295
  458.0000      0.0294
  459.0000      0.0293
  460.0000      0.0293
  461.0000      0.0293
  462.0000      0.0293
  463.0000      0.0292
  464.0000      0.0292
  465.0000      0.0292
  466.0000      0.0291
  467.0000      0.0291
  468.0000      0.0290
  469.0000      0.0289
  470.0000      0.0288
  471.0000      0.0286
  472.0000      0.0284
  473.0000      0.0283
  474.0000      0.0281
  475.0000      0.0280
  476.0000      0.0278
  477.0000      0.0276
  478.0000      0.0274
  479.0000      0.0272
  480.0000      0.0271
  481.0000      0.0269
  482.0000      0.0266
  483.0000      0.0264
  484.0000      0.0262
  485.0000      0.0261
  486.0000      0.0259
  487.0000      0.0258
  488.0000      0.0256
  489.0000      0.0256
  490.0000      0.0255
  491.0000      0.0254
  492.0000      0.0253
  493.0000      0.0251
  494.0000      0.0250
  495.0000      0.0250
  496.0000      0.0250
  497.0000      0.0249
  498.0000      0.0249
  499.0000      0.0249
  500.0000      0.0248
  501.0000      0.0247
  502.0000      0.0246
  503.0000      0.0246
  504.0000      0.0245
  505.0000      0.0244
  506.0000      0.0243
  507.0000      0.0243
  508.0000      0.0243
  509.0000      0.0243
  510.0000      0.0243
  511.0000      0.0243
  512.0000      0.0243
  513.0000      0.0244
  514.0000      0.0244
  515.0000      0.0244
  516.0000      0.0244
  517.0000      0.0244
  518.0000      0.0244
  519.0000      0.0243
  520.0000      0.0241
  521.0000      0.0240
  522.0000      0.0239
  523.0000      0.0238
  524.0000      0.0237
  525.0000      0.0235
  526.0000      0.0234
  527.0000      0.0233
  528.0000      0.0232
  529.0000      0.0231
  530.0000      0.0231
  531.0000      0.0231
  532.0000      0.0230
  533.0000      0.0230
  534.0000      0.0231
  535.0000      0.0232
  536.0000      0.0232
  537.0000      0.0232
  538.0000      0.0231
  539.0000      0.0229
  540.0000      0.0228
  541.0000      0.0227
  542.0000      0.0226
  543.0000      0.0225
  544.0000      0.0223
  545.0000      0.0222
  546.0000      0.0223
  547.0000      0.0223
  548.0000      0.0224
  549.0000      0.0224
  550.0000      0.0224
  551.0000      0.0223
  552.0000      0.0222
  553.0000      0.0222
  554.0000      0.0221
  555.0000      0.0221
  556.0000      0.0220
  557.0000      0.0219
  558.0000      0.0219
  559.0000      0.0219
  560.0000      0.0219
  561.0000      0.0219
  562.0000      0.0219
  563.0000      0.0219
  564.0000      0.0220
  565.0000      0.0220
  566.0000      0.0219
  567.0000      0.0219
  568.0000      0.0218
  569.0000      0.0217
  570.0000      0.0216
  571.0000      0.0214
  572.0000      0.0213
  573.0000      0.0212
  574.0000      0.0211
  575.0000      0.0211
  576.0000      0.0211
  577.0000      0.0211
  578.0000      0.0210
  579.0000      0.0210
  580.0000      0.0208
  581.0000      0.0207
  582.0000      0.0206
  583.0000      0.0206
  584.0000      0.0206
  585.0000      0.0206
  586.0000      0.0205
  587.0000      0.0206
  588.0000      0.0207
  589.0000      0.0209
  590.0000      0.0210
  591.0000      0.0211
  592.0000      0.0212
  593.0000      0.0213
  594.0000      0.0213
  595.0000      0.0212
  596.0000      0.0212
  597.0000      0.0211
  598.0000      0.0212
  599.0000      0.0211
  600.0000      0.0211
  601.0000      0.0211
  602.0000      0.0211
  603.0000      0.0211
  604.0000      0.0211
  605.0000      0.0210
  606.0000      0.0209
  607.0000      0.0209
  608.0000      0.0210
  609.0000      0.0211
  610.0000      0.0213
  611.0000      0.0213
  612.0000      0.0214
  613.0000      0.0214
  614.0000      0.0214
  615.0000      0.0214
  616.0000      0.0214
  617.0000      0.0214
  618.0000      0.0214
  619.0000      0.0214
  620.0000      0.0213
  621.0000      0.0213
  622.0000      0.0212
  623.0000      0.0211
  624.0000      0.0210
  625.0000      0.0209
  626.0000      0.0208
  627.0000      0.0208
  628.0000      0.0207
  629.0000      0.0206
  630.0000      0.0205
  631.0000      0.0204
  632.0000      0.0203
  633.0000      0.0203
  634.0000      0.0203
  635.0000      0.0202
  636.0000      0.0199
  637.0000      0.0199
  638.0000      0.0198
  639.0000      0.0197
  640.0000      0.0197
  641.0000      0.0195
  642.0000      0.0195
  643.0000      0.0195
  644.0000      0.0193
  645.0000      0.0193
  646.0000      0.0191
  647.0000      0.0190
  648.0000      0.0189
  649.0000      0.0188
  650.0000      0.0187
  651.0000      0.0186
  652.0000      0.0185
  653.0000      0.0185
  654.0000      0.0184
  655.0000      0.0183
  656.0000      0.0183
  657.0000      0.0182
  658.0000      0.0182
  659.0000      0.0182
  660.0000      0.0182
  661.0000      0.0183
  662.0000      0.0183
  663.0000      0.0183
  664.0000      0.0184
  665.0000      0.0185
  666.0000      0.0185
  667.0000      0.0185
  668.0000      0.0187
  669.0000      0.0188
  670.0000      0.0190
  671.0000      0.0191
  672.0000      0.0192
  673.0000      0.0194
  674.0000      0.0195
  675.0000      0.0197
  676.0000      0.0199
  677.0000      0.0200
  678.0000      0.0203
  679.0000      0.0203
  680.0000      0.0202
  681.0000      0.0202
  682.0000      0.0203
  683.0000      0.0203
  684.0000      0.0201
  685.0000      0.0200
  686.0000      0.0198
  687.0000      0.0197
  688.0000      0.0196
  689.0000      0.0194
  690.0000      0.0192
  691.0000      0.0190
  692.0000      0.0189
  693.0000      0.0188
  694.0000      0.0186
  695.0000      0.0185
  696.0000      0.0183
  697.0000      0.0181
  698.0000      0.0179
  699.0000      0.0178
  700.0000      0.0177
  701.0000      0.0176
  702.0000      0.0176
  703.0000      0.0175
  704.0000      0.0173
  705.0000      0.0173
  706.0000      0.0172
  707.0000      0.0172
  708.0000      0.0172
  709.0000      0.0172
  710.0000      0.0172
  711.0000      0.0172
  712.0000      0.0171
  713.0000      0.0171
  714.0000      0.0170
  715.0000      0.0169
  716.0000      0.0169
  717.0000      0.0169
  718.0000      0.0168
  719.0000      0.0168
  720.0000      0.0168
  721.0000      0.0167
  722.0000      0.0167
  723.0000      0.0165
  724.0000      0.0164
  725.0000      0.0164
  726.0000      0.0162
  727.0000      0.0161
  728.0000      0.0159
  729.0000      0.0158
  730.0000      0.0156
  731.0000      0.0154
  732.0000      0.0153
  733.0000      0.0150
  734.0000      0.0149
  735.0000      0.0148
  736.0000      0.0160
  737.0000      0.0160
  738.0000      0.0160
  739.0000      0.0161
  740.0000      0.0160
  741.0000      0.0161
  742.0000      0.0161
  743.0000      0.0161
  744.0000      0.0162
  745.0000      0.0162
  746.0000      0.0161
  747.0000      0.0161
  748.0000      0.0160
  749.0000      0.0160
  750.0000      0.0159
  751.0000      0.0158
  752.0000      0.0158
  753.0000      0.0158
  754.0000      0.0158
  755.0000      0.0158
  756.0000      0.0158
  757.0000      0.0159
  758.0000      0.0159
  759.0000      0.0159
  760.0000      0.0159
  761.0000      0.0159
  762.0000      0.0159
  763.0000      0.0158
  764.0000      0.0158
  765.0000      0.0158
  766.0000      0.0157
  767.0000      0.0157
  768.0000      0.0156
  769.0000      0.0156
  770.0000      0.0156
  771.0000      0.0156
  772.0000      0.0156
  773.0000      0.0157
  774.0000      0.0157
  775.0000      0.0157
  776.0000      0.0157
  777.0000      0.0157
  778.0000      0.0157
  779.0000      0.0158
  780.0000      0.0158
  781.0000      0.0158
  782.0000      0.0159
  783.0000      0.0159
  784.0000      0.0160
  785.0000      0.0160
  786.0000      0.0161
  787.0000      0.0162
  788.0000      0.0163
  789.0000      0.0163
  790.0000      0.0164
  791.0000      0.0165
  792.0000      0.0165
  793.0000      0.0166
  794.0000      0.0167
  795.0000      0.0167
  796.0000      0.0168
  797.0000      0.0169
  798.0000      0.0169
  799.0000      0.0170
  800.0000      0.0170
