Start Wavelength:    200.0000
End Wavelength:    800.0000
Read Mode:  ABS
Read Average:      0.1000
Nanometer Interval:      1.0000
Time:      0.0000

  200.0000      0.6424
  201.0000      0.5747
  202.0000      0.5404
  203.0000      0.5100
  204.0000      0.4829
  205.0000      0.4615
  206.0000      0.4450
  207.0000      0.4289
  208.0000      0.4160
  209.0000      0.4025
  210.0000      0.3917
  211.0000      0.3822
  212.0000      0.3731
  213.0000      0.3642
  214.0000      0.3558
  215.0000      0.3482
  216.0000      0.3417
  217.0000      0.3345
  218.0000      0.3289
  219.0000      0.3226
  220.0000      0.3173
  221.0000      0.3110
  222.0000      0.3064
  223.0000      0.3012
  224.0000      0.2967
  225.0000      0.2905
  226.0000      0.2868
  227.0000      0.2818
  228.0000      0.2782
  229.0000      0.2736
  230.0000      0.2696
  231.0000      0.2655
  232.0000      0.2623
  233.0000      0.2582
  234.0000      0.2547
  235.0000      0.2511
  236.0000      0.2483
  237.0000      0.2450
  238.0000      0.2422
  239.0000      0.2391
  240.0000      0.2370
  241.0000      0.2346
  242.0000      0.2327
  243.0000      0.2307
  244.0000      0.2284
  245.0000      0.2264
  246.0000      0.2248
  247.0000      0.2233
  248.0000      0.2216
  249.0000      0.2202
  250.0000      0.2186
  251.0000      0.2177
  252.0000      0.2163
  253.0000      0.2155
  254.0000      0.2137
  255.0000      0.2131
  256.0000      0.2119
  257.0000      0.2107
  258.0000      0.2096
  259.0000      0.2085
  260.0000      0.2070
  261.0000      0.2056
  262.0000      0.2043
  263.0000      0.2030
  264.0000      0.2013
  265.0000      0.1994
  266.0000      0.1985
  267.0000      0.1967
  268.0000      0.1945
  269.0000      0.1935
  270.0000      0.1907
  271.0000      0.1897
  272.0000      0.1870
  273.0000      0.1854
  274.0000      0.1835
  275.0000      0.1816
  276.0000      0.1787
  277.0000      0.1770
  278.0000      0.1751
  279.0000      0.1725
  280.0000      0.1701
  281.0000      0.1676
  282.0000      0.1653
  283.0000      0.1632
  284.0000      0.1606
  285.0000      0.1586
  286.0000      0.1556
  287.0000      0.1534
  288.0000      0.1508
  289.0000      0.1487
  290.0000      0.1464
  291.0000      0.1438
  292.0000      0.1419
  293.0000      0.1397
  294.0000      0.1377
  295.0000      0.1352
  296.0000      0.1335
  297.0000      0.1313
  298.0000      0.1300
  299.0000      0.1277
  300.0000      0.1263
  301.0000      0.1246
  302.0000      0.1233
  303.0000      0.1216
  304.0000      0.1202
  305.0000      0.1181
  306.0000      0.1167
  307.0000      0.1158
  308.0000      0.1142
  309.0000      0.1126
  310.0000      0.1120
  311.0000      0.1102
  312.0000      0.1101
  313.0000      0.1087
  314.0000      0.1077
  315.0000      0.1067
  316.0000      0.1063
  317.0000      0.1049
  318.0000      0.1039
  319.0000      0.1030
  320.0000      0.1018
  321.0000      0.1011
  322.0000      0.1009
  323.0000      0.0998
  324.0000      0.0997
  325.0000      0.0987
  326.0000      0.0981
  327.0000      0.0971
  328.0000      0.0969
  329.0000      0.0956
  330.0000      0.0952
  331.0000      0.0939
  332.0000      0.0935
  333.0000      0.0925
  334.0000      0.0921
  335.0000      0.0915
  336.0000      0.0907
  337.0000      0.0903
  338.0000      0.0900
  339.0000      0.0891
  340.0000      0.0889
  341.0000      0.0880
  342.0000      0.0877
  343.0000      0.0866
  344.0000      0.0862
  345.0000      0.0855
  346.0000      0.0850
  347.0000      0.0840
  348.0000      0.0834
  349.0000      0.0831
  350.0000      0.0820
  351.0000      0.0819
  352.0000      0.0810
  353.0000      0.0807
  354.0000      0.0799
  355.0000      0.0794
  356.0000      0.0792
  357.0000      0.0813
  358.0000      0.0791
  359.0000      0.0797
  360.0000      0.0783
  361.0000      0.0773
  362.0000      0.0763
  363.0000      0.0773
  364.0000      0.0770
  365.0000      0.0765
  366.0000      0.0767
  367.0000      0.0756
  368.0000      0.0760
  369.0000      0.0736
  370.0000      0.0743
  371.0000      0.0730
  372.0000      0.0737
  373.0000      0.0729
  374.0000      0.0738
  375.0000      0.0726
  376.0000      0.0717
  377.0000      0.0709
  378.0000      0.0703
  379.0000      0.0705
  380.0000      0.0704
  381.0000      0.0702
  382.0000      0.0699
  383.0000      0.0688
  384.0000      0.0686
  385.0000      0.0681
  386.0000      0.0675
  387.0000      0.0675
  388.0000      0.0674
  389.0000      0.0669
  390.0000      0.0663
  391.0000      0.0664
  392.0000      0.0654
  393.0000      0.0660
  394.0000      0.0655
  395.0000      0.0650
  396.0000      0.0651
  397.0000      0.0642
  398.0000      0.0640
  399.0000      0.0634
  400.0000      0.0639
  401.0000      0.0632
  402.0000      0.0627
  403.0000      0.0629
  404.0000      0.0622
  405.0000      0.0620
  406.0000      0.0613
  407.0000      0.0618
  408.0000      0.0617
  409.0000      0.0616
  410.0000      0.0614
  411.0000      0.0612
  412.0000      0.0612
  413.0000      0.0616
  414.0000      0.0613
  415.0000      0.0614
  416.0000      0.0603
  417.0000      0.0599
  418.0000      0.0596
  419.0000      0.0591
  420.0000      0.0589
  421.0000      0.0585
  422.0000      0.0581
  423.0000      0.0579
  424.0000      0.0576
  425.0000      0.0572
  426.0000      0.0569
  427.0000      0.0566
  428.0000      0.0564
  429.0000      0.0563
  430.0000      0.0561
  431.0000      0.0558
  432.0000      0.0557
  433.0000      0.0556
  434.0000      0.0554
  435.0000      0.0553
  436.0000      0.0551
  437.0000      0.0551
  438.0000      0.0549
  439.0000      0.0548
  440.0000      0.0548
  441.0000      0.0546
  442.0000      0.0546
  443.0000      0.0545
  444.0000      0.0545
  445.0000      0.0543
  446.0000      0.0542
  447.0000      0.0542
  448.0000      0.0540
  449.0000      0.0539
  450.0000      0.0538
  451.0000      0.0536
  452.0000      0.0534
  453.0000      0.0533
  454.0000      0.0531
  455.0000      0.0529
  456.0000      0.0527
  457.0000      0.0526
  458.0000      0.0523
  459.0000      0.0522
  460.0000      0.0520
  461.0000      0.0519
  462.0000      0.0517
  463.0000      0.0515
  464.0000      0.0514
  465.0000      0.0513
  466.0000      0.0511
  467.0000      0.0508
  468.0000      0.0506
  469.0000      0.0503
  470.0000      0.0500
  471.0000      0.0497
  472.0000      0.0494
  473.0000      0.0492
  474.0000      0.0488
  475.0000      0.0486
  476.0000      0.0483
  477.0000      0.0480
  478.0000      0.0478
  479.0000      0.0476
  480.0000      0.0474
  481.0000      0.0472
  482.0000      0.0470
  483.0000      0.0468
  484.0000      0.0466
  485.0000      0.0465
  486.0000      0.0464
  487.0000      0.0462
  488.0000      0.0461
  489.0000      0.0459
  490.0000      0.0458
  491.0000      0.0458
  492.0000      0.0457
  493.0000      0.0457
  494.0000      0.0457
  495.0000      0.0457
  496.0000      0.0457
  497.0000      0.0456
  498.0000      0.0455
  499.0000      0.0455
  500.0000      0.0455
  501.0000      0.0454
  502.0000      0.0454
  503.0000      0.0453
  504.0000      0.0453
  505.0000      0.0453
  506.0000      0.0452
  507.0000      0.0451
  508.0000      0.0450
  509.0000      0.0449
  510.0000      0.0447
  511.0000      0.0446
  512.0000      0.0444
  513.0000      0.0443
  514.0000      0.0441
  515.0000      0.0439
  516.0000      0.0437
  517.0000      0.0436
  518.0000      0.0434
  519.0000      0.0431
  520.0000      0.0430
  521.0000      0.0428
  522.0000      0.0427
  523.0000      0.0425
  524.0000      0.0423
  525.0000      0.0422
  526.0000      0.0420
  527.0000      0.0419
  528.0000      0.0418
  529.0000      0.0416
  530.0000      0.0415
  531.0000      0.0413
  532.0000      0.0412
  533.0000      0.0411
  534.0000      0.0411
  535.0000      0.0410
  536.0000      0.0410
  537.0000      0.0410
  538.0000      0.0409
  539.0000      0.0408
  540.0000      0.0408
  541.0000      0.0408
  542.0000      0.0408
  543.0000      0.0407
  544.0000      0.0406
  545.0000      0.0407
  546.0000      0.0407
  547.0000      0.0407
  548.0000      0.0407
  549.0000      0.0407
  550.0000      0.0407
  551.0000      0.0406
  552.0000      0.0405
  553.0000      0.0404
  554.0000      0.0404
  555.0000      0.0404
  556.0000      0.0404
  557.0000      0.0400
  558.0000      0.0400
  559.0000      0.0399
  560.0000      0.0398
  561.0000      0.0397
  562.0000      0.0396
  563.0000      0.0396
  564.0000      0.0396
  565.0000      0.0396
  566.0000      0.0395
  567.0000      0.0395
  568.0000      0.0395
  569.0000      0.0394
  570.0000      0.0394
  571.0000      0.0393
  572.0000      0.0393
  573.0000      0.0392
  574.0000      0.0391
  575.0000      0.0390
  576.0000      0.0388
  577.0000      0.0387
  578.0000      0.0387
  579.0000      0.0387
  580.0000      0.0386
  581.0000      0.0386
  582.0000      0.0385
  583.0000      0.0385
  584.0000      0.0385
  585.0000      0.0387
  586.0000      0.0387
  587.0000      0.0388
  588.0000      0.0389
  589.0000      0.0389
  590.0000      0.0388
  591.0000      0.0387
  592.0000      0.0385
  593.0000      0.0384
  594.0000      0.0384
  595.0000      0.0385
  596.0000      0.0386
  597.0000      0.0386
  598.0000      0.0387
  599.0000      0.0386
  600.0000      0.0386
  601.0000      0.0386
  602.0000      0.0385
  603.0000      0.0385
  604.0000      0.0384
  605.0000      0.0383
  606.0000      0.0382
  607.0000      0.0381
  608.0000      0.0379
  609.0000      0.0377
  610.0000      0.0375
  611.0000      0.0374
  612.0000      0.0374
  613.0000      0.0374
  614.0000      0.0374
  615.0000      0.0374
  616.0000      0.0373
  617.0000      0.0373
  618.0000      0.0373
  619.0000      0.0373
  620.0000      0.0374
  621.0000      0.0372
  622.0000      0.0372
  623.0000      0.0373
  624.0000      0.0372
  625.0000      0.0372
  626.0000      0.0371
  627.0000      0.0371
  628.0000      0.0370
  629.0000      0.0372
  630.0000      0.0373
  631.0000      0.0374
  632.0000      0.0374
  633.0000      0.0374
  634.0000      0.0374
  635.0000      0.0373
  636.0000      0.0371
  637.0000      0.0370
  638.0000      0.0367
  639.0000      0.0365
  640.0000      0.0365
  641.0000      0.0363
  642.0000      0.0362
  643.0000      0.0362
  644.0000      0.0360
  645.0000      0.0360
  646.0000      0.0359
  647.0000      0.0358
  648.0000      0.0357
  649.0000      0.0356
  650.0000      0.0354
  651.0000      0.0354
  652.0000      0.0352
  653.0000      0.0352
  654.0000      0.0351
  655.0000      0.0350
  656.0000      0.0350
  657.0000      0.0350
  658.0000      0.0350
  659.0000      0.0350
  660.0000      0.0349
  661.0000      0.0347
  662.0000      0.0345
  663.0000      0.0344
  664.0000      0.0344
  665.0000      0.0344
  666.0000      0.0344
  667.0000      0.0343
  668.0000      0.0344
  669.0000      0.0344
  670.0000      0.0345
  671.0000      0.0346
  672.0000      0.0347
  673.0000      0.0347
  674.0000      0.0347
  675.0000      0.0347
  676.0000      0.0348
  677.0000      0.0349
  678.0000      0.0349
  679.0000      0.0350
  680.0000      0.0350
  681.0000      0.0349
  682.0000      0.0348
  683.0000      0.0348
  684.0000      0.0347
  685.0000      0.0346
  686.0000      0.0345
  687.0000      0.0344
  688.0000      0.0343
  689.0000      0.0342
  690.0000      0.0340
  691.0000      0.0340
  692.0000      0.0340
  693.0000      0.0339
  694.0000      0.0338
  695.0000      0.0338
  696.0000      0.0338
  697.0000      0.0336
  698.0000      0.0335
  699.0000      0.0333
  700.0000      0.0331
  701.0000      0.0330
  702.0000      0.0329
  703.0000      0.0328
  704.0000      0.0328
  705.0000      0.0328
  706.0000      0.0327
  707.0000      0.0327
  708.0000      0.0327
  709.0000      0.0327
  710.0000      0.0327
  711.0000      0.0328
  712.0000      0.0328
  713.0000      0.0328
  714.0000      0.0328
  715.0000      0.0327
  716.0000      0.0327
  717.0000      0.0326
  718.0000      0.0325
  719.0000      0.0326
  720.0000      0.0325
  721.0000      0.0325
  722.0000      0.0324
  723.0000      0.0325
  724.0000      0.0324
  725.0000      0.0324
  726.0000      0.0323
  727.0000      0.0323
  728.0000      0.0323
  729.0000      0.0322
  730.0000      0.0322
  731.0000      0.0320
  732.0000      0.0319
  733.0000      0.0319
  734.0000      0.0318
  735.0000      0.0317
  736.0000      0.0317
  737.0000      0.0316
  738.0000      0.0316
  739.0000      0.0316
  740.0000      0.0314
  741.0000      0.0314
  742.0000      0.0314
  743.0000      0.0312
  744.0000      0.0311
  745.0000      0.0312
  746.0000      0.0311
  747.0000      0.0311
  748.0000      0.0310
  749.0000      0.0309
  750.0000      0.0309
  751.0000      0.0308
  752.0000      0.0307
  753.0000      0.0304
  754.0000      0.0303
  755.0000      0.0302
  756.0000      0.0300
  757.0000      0.0299
  758.0000      0.0298
  759.0000      0.0297
  760.0000      0.0296
  761.0000      0.0295
  762.0000      0.0294
  763.0000      0.0292
  764.0000      0.0291
  765.0000      0.0291
  766.0000      0.0290
  767.0000      0.0289
  768.0000      0.0288
  769.0000      0.0287
  770.0000      0.0286
  771.0000      0.0285
  772.0000      0.0284
  773.0000      0.0284
  774.0000      0.0283
  775.0000      0.0283
  776.0000      0.0283
  777.0000      0.0282
  778.0000      0.0283
  779.0000      0.0283
  780.0000      0.0283
  781.0000      0.0283
  782.0000      0.0283
  783.0000      0.0283
  784.0000      0.0283
  785.0000      0.0283
  786.0000      0.0283
  787.0000      0.0283
  788.0000      0.0284
  789.0000      0.0284
  790.0000      0.0284
  791.0000      0.0284
  792.0000      0.0285
  793.0000      0.0284
  794.0000      0.0284
  795.0000      0.0284
  796.0000      0.0283
  797.0000      0.0282
  798.0000      0.0282
  799.0000      0.0282
  800.0000      0.0281
