Start Wavelength:    200.0000
End Wavelength:    800.0000
Read Mode:  ABS
Read Average:      0.1000
Nanometer Interval:      1.0000
Time:      0.0000

  200.0000      0.5040
  201.0000      0.4614
  202.0000      0.4388
  203.0000      0.4178
  204.0000      0.3983
  205.0000      0.3820
  206.0000      0.3676
  207.0000      0.3550
  208.0000      0.3435
  209.0000      0.3314
  210.0000      0.3205
  211.0000      0.3111
  212.0000      0.3013
  213.0000      0.2919
  214.0000      0.2828
  215.0000      0.2750
  216.0000      0.2665
  217.0000      0.2588
  218.0000      0.2511
  219.0000      0.2444
  220.0000      0.2369
  221.0000      0.2304
  222.0000      0.2241
  223.0000      0.2185
  224.0000      0.2125
  225.0000      0.2068
  226.0000      0.2020
  227.0000      0.1971
  228.0000      0.1924
  229.0000      0.1881
  230.0000      0.1836
  231.0000      0.1803
  232.0000      0.1760
  233.0000      0.1724
  234.0000      0.1688
  235.0000      0.1660
  236.0000      0.1625
  237.0000      0.1600
  238.0000      0.1571
  239.0000      0.1549
  240.0000      0.1529
  241.0000      0.1510
  242.0000      0.1486
  243.0000      0.1474
  244.0000      0.1454
  245.0000      0.1445
  246.0000      0.1433
  247.0000      0.1421
  248.0000      0.1408
  249.0000      0.1398
  250.0000      0.1383
  251.0000      0.1377
  252.0000      0.1362
  253.0000      0.1354
  254.0000      0.1341
  255.0000      0.1336
  256.0000      0.1328
  257.0000      0.1316
  258.0000      0.1309
  259.0000      0.1303
  260.0000      0.1292
  261.0000      0.1278
  262.0000      0.1269
  263.0000      0.1259
  264.0000      0.1246
  265.0000      0.1233
  266.0000      0.1224
  267.0000      0.1212
  268.0000      0.1202
  269.0000      0.1194
  270.0000      0.1175
  271.0000      0.1170
  272.0000      0.1152
  273.0000      0.1143
  274.0000      0.1127
  275.0000      0.1113
  276.0000      0.1100
  277.0000      0.1088
  278.0000      0.1077
  279.0000      0.1056
  280.0000      0.1042
  281.0000      0.1027
  282.0000      0.1018
  283.0000      0.1003
  284.0000      0.0985
  285.0000      0.0963
  286.0000      0.0955
  287.0000      0.0938
  288.0000      0.0921
  289.0000      0.0908
  290.0000      0.0891
  291.0000      0.0870
  292.0000      0.0862
  293.0000      0.0841
  294.0000      0.0830
  295.0000      0.0806
  296.0000      0.0804
  297.0000      0.0781
  298.0000      0.0773
  299.0000      0.0761
  300.0000      0.0750
  301.0000      0.0741
  302.0000      0.0731
  303.0000      0.0720
  304.0000      0.0708
  305.0000      0.0700
  306.0000      0.0695
  307.0000      0.0685
  308.0000      0.0681
  309.0000      0.0667
  310.0000      0.0658
  311.0000      0.0643
  312.0000      0.0647
  313.0000      0.0632
  314.0000      0.0626
  315.0000      0.0620
  316.0000      0.0614
  317.0000      0.0609
  318.0000      0.0603
  319.0000      0.0597
  320.0000      0.0591
  321.0000      0.0593
  322.0000      0.0587
  323.0000      0.0576
  324.0000      0.0579
  325.0000      0.0565
  326.0000      0.0566
  327.0000      0.0559
  328.0000      0.0559
  329.0000      0.0545
  330.0000      0.0545
  331.0000      0.0533
  332.0000      0.0527
  333.0000      0.0527
  334.0000      0.0529
  335.0000      0.0526
  336.0000      0.0519
  337.0000      0.0516
  338.0000      0.0513
  339.0000      0.0505
  340.0000      0.0504
  341.0000      0.0494
  342.0000      0.0492
  343.0000      0.0484
  344.0000      0.0483
  345.0000      0.0475
  346.0000      0.0475
  347.0000      0.0467
  348.0000      0.0463
  349.0000      0.0464
  350.0000      0.0458
  351.0000      0.0459
  352.0000      0.0453
  353.0000      0.0449
  354.0000      0.0445
  355.0000      0.0443
  356.0000      0.0442
  357.0000      0.0478
  358.0000      0.0452
  359.0000      0.0465
  360.0000      0.0451
  361.0000      0.0453
  362.0000      0.0432
  363.0000      0.0449
  364.0000      0.0448
  365.0000      0.0454
  366.0000      0.0451
  367.0000      0.0444
  368.0000      0.0448
  369.0000      0.0435
  370.0000      0.0433
  371.0000      0.0430
  372.0000      0.0436
  373.0000      0.0439
  374.0000      0.0433
  375.0000      0.0430
  376.0000      0.0424
  377.0000      0.0414
  378.0000      0.0415
  379.0000      0.0416
  380.0000      0.0424
  381.0000      0.0415
  382.0000      0.0431
  383.0000      0.0406
  384.0000      0.0414
  385.0000      0.0404
  386.0000      0.0410
  387.0000      0.0404
  388.0000      0.0409
  389.0000      0.0399
  390.0000      0.0397
  391.0000      0.0395
  392.0000      0.0390
  393.0000      0.0394
  394.0000      0.0392
  395.0000      0.0390
  396.0000      0.0389
  397.0000      0.0388
  398.0000      0.0386
  399.0000      0.0384
  400.0000      0.0382
  401.0000      0.0382
  402.0000      0.0377
  403.0000      0.0380
  404.0000      0.0373
  405.0000      0.0374
  406.0000      0.0365
  407.0000      0.0376
  408.0000      0.0373
  409.0000      0.0367
  410.0000      0.0370
  411.0000      0.0367
  412.0000      0.0368
  413.0000      0.0368
  414.0000      0.0360
  415.0000      0.0364
  416.0000      0.0363
  417.0000      0.0362
  418.0000      0.0362
  419.0000      0.0360
  420.0000      0.0359
  421.0000      0.0359
  422.0000      0.0356
  423.0000      0.0356
  424.0000      0.0354
  425.0000      0.0354
  426.0000      0.0353
  427.0000      0.0353
  428.0000      0.0351
  429.0000      0.0351
  430.0000      0.0350
  431.0000      0.0350
  432.0000      0.0348
  433.0000      0.0347
  434.0000      0.0346
  435.0000      0.0345
  436.0000      0.0343
  437.0000      0.0341
  438.0000      0.0341
  439.0000      0.0338
  440.0000      0.0337
  441.0000      0.0335
  442.0000      0.0333
  443.0000      0.0331
  444.0000      0.0329
  445.0000      0.0327
  446.0000      0.0324
  447.0000      0.0323
  448.0000      0.0319
  449.0000      0.0317
  450.0000      0.0314
  451.0000      0.0312
  452.0000      0.0308
  453.0000      0.0306
  454.0000      0.0304
  455.0000      0.0301
  456.0000      0.0299
  457.0000      0.0298
  458.0000      0.0295
  459.0000      0.0294
  460.0000      0.0293
  461.0000      0.0292
  462.0000      0.0291
  463.0000      0.0289
  464.0000      0.0289
  465.0000      0.0288
  466.0000      0.0288
  467.0000      0.0286
  468.0000      0.0285
  469.0000      0.0284
  470.0000      0.0282
  471.0000      0.0280
  472.0000      0.0279
  473.0000      0.0278
  474.0000      0.0276
  475.0000      0.0275
  476.0000      0.0274
  477.0000      0.0272
  478.0000      0.0271
  479.0000      0.0270
  480.0000      0.0269
  481.0000      0.0268
  482.0000      0.0267
  483.0000      0.0267
  484.0000      0.0265
  485.0000      0.0265
  486.0000      0.0264
  487.0000      0.0264
  488.0000      0.0263
  489.0000      0.0263
  490.0000      0.0262
  491.0000      0.0261
  492.0000      0.0261
  493.0000      0.0260
  494.0000      0.0259
  495.0000      0.0257
  496.0000      0.0255
  497.0000      0.0254
  498.0000      0.0253
  499.0000      0.0252
  500.0000      0.0251
  501.0000      0.0250
  502.0000      0.0249
  503.0000      0.0248
  504.0000      0.0247
  505.0000      0.0247
  506.0000      0.0246
  507.0000      0.0245
  508.0000      0.0244
  509.0000      0.0243
  510.0000      0.0241
  511.0000      0.0241
  512.0000      0.0240
  513.0000      0.0238
  514.0000      0.0237
  515.0000      0.0237
  516.0000      0.0235
  517.0000      0.0235
  518.0000      0.0234
  519.0000      0.0232
  520.0000      0.0231
  521.0000      0.0231
  522.0000      0.0230
  523.0000      0.0230
  524.0000      0.0229
  525.0000      0.0228
  526.0000      0.0227
  527.0000      0.0226
  528.0000      0.0225
  529.0000      0.0224
  530.0000      0.0223
  531.0000      0.0222
  532.0000      0.0221
  533.0000      0.0220
  534.0000      0.0220
  535.0000      0.0218
  536.0000      0.0218
  537.0000      0.0217
  538.0000      0.0217
  539.0000      0.0217
  540.0000      0.0217
  541.0000      0.0216
  542.0000      0.0215
  543.0000      0.0214
  544.0000      0.0214
  545.0000      0.0214
  546.0000      0.0214
  547.0000      0.0213
  548.0000      0.0212
  549.0000      0.0212
  550.0000      0.0211
  551.0000      0.0210
  552.0000      0.0210
  553.0000      0.0211
  554.0000      0.0210
  555.0000      0.0210
  556.0000      0.0210
  557.0000      0.0215
  558.0000      0.0214
  559.0000      0.0213
  560.0000      0.0211
  561.0000      0.0210
  562.0000      0.0209
  563.0000      0.0208
  564.0000      0.0207
  565.0000      0.0206
  566.0000      0.0204
  567.0000      0.0204
  568.0000      0.0203
  569.0000      0.0202
  570.0000      0.0202
  571.0000      0.0202
  572.0000      0.0203
  573.0000      0.0203
  574.0000      0.0203
  575.0000      0.0204
  576.0000      0.0205
  577.0000      0.0206
  578.0000      0.0206
  579.0000      0.0207
  580.0000      0.0207
  581.0000      0.0208
  582.0000      0.0208
  583.0000      0.0208
  584.0000      0.0207
  585.0000      0.0207
  586.0000      0.0207
  587.0000      0.0207
  588.0000      0.0207
  589.0000      0.0207
  590.0000      0.0207
  591.0000      0.0207
  592.0000      0.0207
  593.0000      0.0207
  594.0000      0.0206
  595.0000      0.0205
  596.0000      0.0205
  597.0000      0.0204
  598.0000      0.0204
  599.0000      0.0203
  600.0000      0.0203
  601.0000      0.0203
  602.0000      0.0203
  603.0000      0.0203
  604.0000      0.0203
  605.0000      0.0203
  606.0000      0.0203
  607.0000      0.0202
  608.0000      0.0201
  609.0000      0.0201
  610.0000      0.0201
  611.0000      0.0201
  612.0000      0.0201
  613.0000      0.0201
  614.0000      0.0200
  615.0000      0.0200
  616.0000      0.0198
  617.0000      0.0197
  618.0000      0.0196
  619.0000      0.0195
  620.0000      0.0195
  621.0000      0.0194
  622.0000      0.0193
  623.0000      0.0192
  624.0000      0.0191
  625.0000      0.0190
  626.0000      0.0190
  627.0000      0.0189
  628.0000      0.0189
  629.0000      0.0188
  630.0000      0.0188
  631.0000      0.0188
  632.0000      0.0187
  633.0000      0.0186
  634.0000      0.0186
  635.0000      0.0185
  636.0000      0.0184
  637.0000      0.0184
  638.0000      0.0183
  639.0000      0.0183
  640.0000      0.0184
  641.0000      0.0184
  642.0000      0.0183
  643.0000      0.0184
  644.0000      0.0185
  645.0000      0.0186
  646.0000      0.0186
  647.0000      0.0187
  648.0000      0.0188
  649.0000      0.0189
  650.0000      0.0190
  651.0000      0.0191
  652.0000      0.0191
  653.0000      0.0192
  654.0000      0.0192
  655.0000      0.0193
  656.0000      0.0193
  657.0000      0.0194
  658.0000      0.0195
  659.0000      0.0195
  660.0000      0.0195
  661.0000      0.0195
  662.0000      0.0195
  663.0000      0.0195
  664.0000      0.0196
  665.0000      0.0197
  666.0000      0.0198
  667.0000      0.0199
  668.0000      0.0199
  669.0000      0.0200
  670.0000      0.0201
  671.0000      0.0201
  672.0000      0.0201
  673.0000      0.0202
  674.0000      0.0202
  675.0000      0.0203
  676.0000      0.0204
  677.0000      0.0204
  678.0000      0.0205
  679.0000      0.0206
  680.0000      0.0206
  681.0000      0.0207
  682.0000      0.0206
  683.0000      0.0206
  684.0000      0.0207
  685.0000      0.0206
  686.0000      0.0204
  687.0000      0.0204
  688.0000      0.0204
  689.0000      0.0204
  690.0000      0.0202
  691.0000      0.0201
  692.0000      0.0199
  693.0000      0.0197
  694.0000      0.0197
  695.0000      0.0195
  696.0000      0.0194
  697.0000      0.0194
  698.0000      0.0193
  699.0000      0.0193
  700.0000      0.0192
  701.0000      0.0191
  702.0000      0.0190
  703.0000      0.0190
  704.0000      0.0187
  705.0000      0.0185
  706.0000      0.0183
  707.0000      0.0182
  708.0000      0.0180
  709.0000      0.0179
  710.0000      0.0178
  711.0000      0.0176
  712.0000      0.0175
  713.0000      0.0174
  714.0000      0.0173
  715.0000      0.0172
  716.0000      0.0170
  717.0000      0.0170
  718.0000      0.0169
  719.0000      0.0168
  720.0000      0.0166
  721.0000      0.0166
  722.0000      0.0166
  723.0000      0.0166
  724.0000      0.0166
  725.0000      0.0166
  726.0000      0.0166
  727.0000      0.0166
  728.0000      0.0165
  729.0000      0.0165
  730.0000      0.0165
  731.0000      0.0164
  732.0000      0.0163
  733.0000      0.0162
  734.0000      0.0162
  735.0000      0.0161
  736.0000      0.0151
  737.0000      0.0150
  738.0000      0.0150
  739.0000      0.0150
  740.0000      0.0149
  741.0000      0.0149
  742.0000      0.0148
  743.0000      0.0148
  744.0000      0.0147
  745.0000      0.0147
  746.0000      0.0147
  747.0000      0.0147
  748.0000      0.0147
  749.0000      0.0147
  750.0000      0.0147
  751.0000      0.0147
  752.0000      0.0146
  753.0000      0.0146
  754.0000      0.0146
  755.0000      0.0146
  756.0000      0.0146
  757.0000      0.0146
  758.0000      0.0146
  759.0000      0.0147
  760.0000      0.0147
  761.0000      0.0147
  762.0000      0.0148
  763.0000      0.0148
  764.0000      0.0149
  765.0000      0.0149
  766.0000      0.0150
  767.0000      0.0150
  768.0000      0.0150
  769.0000      0.0150
  770.0000      0.0150
  771.0000      0.0150
  772.0000      0.0150
  773.0000      0.0150
  774.0000      0.0150
  775.0000      0.0150
  776.0000      0.0150
  777.0000      0.0150
  778.0000      0.0151
  779.0000      0.0151
  780.0000      0.0151
  781.0000      0.0150
  782.0000      0.0150
  783.0000      0.0150
  784.0000      0.0149
  785.0000      0.0149
  786.0000      0.0148
  787.0000      0.0148
  788.0000      0.0147
  789.0000      0.0145
  790.0000      0.0143
  791.0000      0.0142
  792.0000      0.0141
  793.0000      0.0140
  794.0000      0.0140
  795.0000      0.0139
  796.0000      0.0139
  797.0000      0.0138
  798.0000      0.0136
  799.0000      0.0137
  800.0000      0.0136
