Start Wavelength:    200.0000
End Wavelength:    800.0000
Read Mode:  ABS
Read Average:      0.1000
Nanometer Interval:      1.0000
Time:      0.0000

  200.0000      0.5022
  201.0000      0.4569
  202.0000      0.4319
  203.0000      0.4128
  204.0000      0.3932
  205.0000      0.3752
  206.0000      0.3626
  207.0000      0.3497
  208.0000      0.3380
  209.0000      0.3256
  210.0000      0.3161
  211.0000      0.3072
  212.0000      0.2981
  213.0000      0.2889
  214.0000      0.2809
  215.0000      0.2737
  216.0000      0.2663
  217.0000      0.2588
  218.0000      0.2526
  219.0000      0.2460
  220.0000      0.2400
  221.0000      0.2333
  222.0000      0.2283
  223.0000      0.2231
  224.0000      0.2185
  225.0000      0.2126
  226.0000      0.2086
  227.0000      0.2042
  228.0000      0.2004
  229.0000      0.1957
  230.0000      0.1921
  231.0000      0.1884
  232.0000      0.1852
  233.0000      0.1810
  234.0000      0.1783
  235.0000      0.1750
  236.0000      0.1724
  237.0000      0.1691
  238.0000      0.1665
  239.0000      0.1641
  240.0000      0.1618
  241.0000      0.1596
  242.0000      0.1582
  243.0000      0.1564
  244.0000      0.1549
  245.0000      0.1530
  246.0000      0.1520
  247.0000      0.1506
  248.0000      0.1495
  249.0000      0.1484
  250.0000      0.1473
  251.0000      0.1462
  252.0000      0.1454
  253.0000      0.1440
  254.0000      0.1434
  255.0000      0.1417
  256.0000      0.1412
  257.0000      0.1399
  258.0000      0.1389
  259.0000      0.1382
  260.0000      0.1373
  261.0000      0.1360
  262.0000      0.1355
  263.0000      0.1340
  264.0000      0.1333
  265.0000      0.1314
  266.0000      0.1311
  267.0000      0.1297
  268.0000      0.1284
  269.0000      0.1271
  270.0000      0.1253
  271.0000      0.1247
  272.0000      0.1230
  273.0000      0.1220
  274.0000      0.1210
  275.0000      0.1195
  276.0000      0.1182
  277.0000      0.1166
  278.0000      0.1155
  279.0000      0.1141
  280.0000      0.1123
  281.0000      0.1110
  282.0000      0.1096
  283.0000      0.1082
  284.0000      0.1057
  285.0000      0.1046
  286.0000      0.1032
  287.0000      0.1019
  288.0000      0.0992
  289.0000      0.0987
  290.0000      0.0964
  291.0000      0.0951
  292.0000      0.0938
  293.0000      0.0922
  294.0000      0.0911
  295.0000      0.0895
  296.0000      0.0877
  297.0000      0.0868
  298.0000      0.0852
  299.0000      0.0844
  300.0000      0.0830
  301.0000      0.0820
  302.0000      0.0806
  303.0000      0.0800
  304.0000      0.0785
  305.0000      0.0776
  306.0000      0.0759
  307.0000      0.0764
  308.0000      0.0746
  309.0000      0.0739
  310.0000      0.0732
  311.0000      0.0722
  312.0000      0.0713
  313.0000      0.0707
  314.0000      0.0698
  315.0000      0.0691
  316.0000      0.0686
  317.0000      0.0680
  318.0000      0.0676
  319.0000      0.0667
  320.0000      0.0662
  321.0000      0.0662
  322.0000      0.0659
  323.0000      0.0652
  324.0000      0.0648
  325.0000      0.0642
  326.0000      0.0638
  327.0000      0.0632
  328.0000      0.0627
  329.0000      0.0624
  330.0000      0.0613
  331.0000      0.0611
  332.0000      0.0600
  333.0000      0.0604
  334.0000      0.0595
  335.0000      0.0600
  336.0000      0.0589
  337.0000      0.0598
  338.0000      0.0592
  339.0000      0.0590
  340.0000      0.0584
  341.0000      0.0579
  342.0000      0.0581
  343.0000      0.0575
  344.0000      0.0574
  345.0000      0.0571
  346.0000      0.0566
  347.0000      0.0561
  348.0000      0.0562
  349.0000      0.0562
  350.0000      0.0554
  351.0000      0.0555
  352.0000      0.0551
  353.0000      0.0547
  354.0000      0.0545
  355.0000      0.0538
  356.0000      0.0540
  357.0000      0.0513
  358.0000      0.0515
  359.0000      0.0509
  360.0000      0.0512
  361.0000      0.0491
  362.0000      0.0467
  363.0000      0.0479
  364.0000      0.0481
  365.0000      0.0486
  366.0000      0.0480
  367.0000      0.0482
  368.0000      0.0477
  369.0000      0.0464
  370.0000      0.0461
  371.0000      0.0460
  372.0000      0.0458
  373.0000      0.0471
  374.0000      0.0452
  375.0000      0.0456
  376.0000      0.0435
  377.0000      0.0440
  378.0000      0.0429
  379.0000      0.0440
  380.0000      0.0438
  381.0000      0.0433
  382.0000      0.0439
  383.0000      0.0431
  384.0000      0.0435
  385.0000      0.0421
  386.0000      0.0421
  387.0000      0.0418
  388.0000      0.0419
  389.0000      0.0412
  390.0000      0.0410
  391.0000      0.0407
  392.0000      0.0406
  393.0000      0.0405
  394.0000      0.0405
  395.0000      0.0400
  396.0000      0.0406
  397.0000      0.0397
  398.0000      0.0400
  399.0000      0.0395
  400.0000      0.0397
  401.0000      0.0398
  402.0000      0.0389
  403.0000      0.0394
  404.0000      0.0388
  405.0000      0.0382
  406.0000      0.0378
  407.0000      0.0385
  408.0000      0.0385
  409.0000      0.0384
  410.0000      0.0383
  411.0000      0.0379
  412.0000      0.0380
  413.0000      0.0384
  414.0000      0.0379
  415.0000      0.0385
  416.0000      0.0394
  417.0000      0.0394
  418.0000      0.0394
  419.0000      0.0392
  420.0000      0.0392
  421.0000      0.0391
  422.0000      0.0389
  423.0000      0.0389
  424.0000      0.0386
  425.0000      0.0386
  426.0000      0.0382
  427.0000      0.0381
  428.0000      0.0379
  429.0000      0.0379
  430.0000      0.0377
  431.0000      0.0376
  432.0000      0.0374
  433.0000      0.0374
  434.0000      0.0371
  435.0000      0.0371
  436.0000      0.0369
  437.0000      0.0367
  438.0000      0.0365
  439.0000      0.0364
  440.0000      0.0362
  441.0000      0.0360
  442.0000      0.0358
  443.0000      0.0355
  444.0000      0.0354
  445.0000      0.0352
  446.0000      0.0349
  447.0000      0.0346
  448.0000      0.0343
  449.0000      0.0340
  450.0000      0.0337
  451.0000      0.0333
  452.0000      0.0330
  453.0000      0.0325
  454.0000      0.0322
  455.0000      0.0318
  456.0000      0.0314
  457.0000      0.0312
  458.0000      0.0308
  459.0000      0.0307
  460.0000      0.0307
  461.0000      0.0307
  462.0000      0.0307
  463.0000      0.0308
  464.0000      0.0312
  465.0000      0.0313
  466.0000      0.0315
  467.0000      0.0316
  468.0000      0.0317
  469.0000      0.0317
  470.0000      0.0316
  471.0000      0.0315
  472.0000      0.0313
  473.0000      0.0312
  474.0000      0.0310
  475.0000      0.0309
  476.0000      0.0308
  477.0000      0.0306
  478.0000      0.0305
  479.0000      0.0303
  480.0000      0.0302
  481.0000      0.0301
  482.0000      0.0300
  483.0000      0.0299
  484.0000      0.0297
  485.0000      0.0296
  486.0000      0.0294
  487.0000      0.0293
  488.0000      0.0291
  489.0000      0.0289
  490.0000      0.0286
  491.0000      0.0284
  492.0000      0.0282
  493.0000      0.0280
  494.0000      0.0278
  495.0000      0.0277
  496.0000      0.0275
  497.0000      0.0273
  498.0000      0.0272
  499.0000      0.0269
  500.0000      0.0268
  501.0000      0.0264
  502.0000      0.0262
  503.0000      0.0261
  504.0000      0.0259
  505.0000      0.0258
  506.0000      0.0257
  507.0000      0.0256
  508.0000      0.0255
  509.0000      0.0253
  510.0000      0.0252
  511.0000      0.0250
  512.0000      0.0249
  513.0000      0.0248
  514.0000      0.0247
  515.0000      0.0245
  516.0000      0.0243
  517.0000      0.0242
  518.0000      0.0242
  519.0000      0.0241
  520.0000      0.0241
  521.0000      0.0240
  522.0000      0.0239
  523.0000      0.0238
  524.0000      0.0237
  525.0000      0.0237
  526.0000      0.0235
  527.0000      0.0234
  528.0000      0.0233
  529.0000      0.0232
  530.0000      0.0231
  531.0000      0.0231
  532.0000      0.0230
  533.0000      0.0229
  534.0000      0.0228
  535.0000      0.0227
  536.0000      0.0225
  537.0000      0.0224
  538.0000      0.0223
  539.0000      0.0222
  540.0000      0.0222
  541.0000      0.0221
  542.0000      0.0221
  543.0000      0.0220
  544.0000      0.0220
  545.0000      0.0219
  546.0000      0.0218
  547.0000      0.0217
  548.0000      0.0216
  549.0000      0.0216
  550.0000      0.0215
  551.0000      0.0214
  552.0000      0.0214
  553.0000      0.0214
  554.0000      0.0213
  555.0000      0.0212
  556.0000      0.0212
  557.0000      0.0222
  558.0000      0.0221
  559.0000      0.0220
  560.0000      0.0219
  561.0000      0.0218
  562.0000      0.0217
  563.0000      0.0216
  564.0000      0.0215
  565.0000      0.0215
  566.0000      0.0214
  567.0000      0.0213
  568.0000      0.0213
  569.0000      0.0210
  570.0000      0.0206
  571.0000      0.0205
  572.0000      0.0204
  573.0000      0.0204
  574.0000      0.0203
  575.0000      0.0203
  576.0000      0.0202
  577.0000      0.0201
  578.0000      0.0201
  579.0000      0.0200
  580.0000      0.0200
  581.0000      0.0199
  582.0000      0.0199
  583.0000      0.0199
  584.0000      0.0199
  585.0000      0.0199
  586.0000      0.0199
  587.0000      0.0199
  588.0000      0.0199
  589.0000      0.0200
  590.0000      0.0199
  591.0000      0.0199
  592.0000      0.0199
  593.0000      0.0199
  594.0000      0.0198
  595.0000      0.0198
  596.0000      0.0197
  597.0000      0.0197
  598.0000      0.0196
  599.0000      0.0196
  600.0000      0.0195
  601.0000      0.0195
  602.0000      0.0195
  603.0000      0.0195
  604.0000      0.0196
  605.0000      0.0196
  606.0000      0.0195
  607.0000      0.0196
  608.0000      0.0195
  609.0000      0.0194
  610.0000      0.0194
  611.0000      0.0194
  612.0000      0.0194
  613.0000      0.0194
  614.0000      0.0193
  615.0000      0.0193
  616.0000      0.0192
  617.0000      0.0192
  618.0000      0.0192
  619.0000      0.0191
  620.0000      0.0190
  621.0000      0.0190
  622.0000      0.0190
  623.0000      0.0190
  624.0000      0.0190
  625.0000      0.0191
  626.0000      0.0191
  627.0000      0.0191
  628.0000      0.0192
  629.0000      0.0193
  630.0000      0.0194
  631.0000      0.0194
  632.0000      0.0195
  633.0000      0.0196
  634.0000      0.0196
  635.0000      0.0197
  636.0000      0.0198
  637.0000      0.0198
  638.0000      0.0197
  639.0000      0.0197
  640.0000      0.0198
  641.0000      0.0196
  642.0000      0.0194
  643.0000      0.0195
  644.0000      0.0195
  645.0000      0.0195
  646.0000      0.0194
  647.0000      0.0194
  648.0000      0.0194
  649.0000      0.0194
  650.0000      0.0194
  651.0000      0.0194
  652.0000      0.0194
  653.0000      0.0193
  654.0000      0.0193
  655.0000      0.0193
  656.0000      0.0192
  657.0000      0.0192
  658.0000      0.0191
  659.0000      0.0190
  660.0000      0.0189
  661.0000      0.0188
  662.0000      0.0189
  663.0000      0.0188
  664.0000      0.0188
  665.0000      0.0188
  666.0000      0.0188
  667.0000      0.0188
  668.0000      0.0189
  669.0000      0.0190
  670.0000      0.0191
  671.0000      0.0191
  672.0000      0.0191
  673.0000      0.0191
  674.0000      0.0191
  675.0000      0.0191
  676.0000      0.0191
  677.0000      0.0191
  678.0000      0.0191
  679.0000      0.0191
  680.0000      0.0191
  681.0000      0.0192
  682.0000      0.0193
  683.0000      0.0193
  684.0000      0.0193
  685.0000      0.0193
  686.0000      0.0192
  687.0000      0.0191
  688.0000      0.0190
  689.0000      0.0188
  690.0000      0.0187
  691.0000      0.0186
  692.0000      0.0185
  693.0000      0.0183
  694.0000      0.0182
  695.0000      0.0182
  696.0000      0.0183
  697.0000      0.0182
  698.0000      0.0182
  699.0000      0.0181
  700.0000      0.0181
  701.0000      0.0181
  702.0000      0.0180
  703.0000      0.0180
  704.0000      0.0180
  705.0000      0.0179
  706.0000      0.0179
  707.0000      0.0178
  708.0000      0.0176
  709.0000      0.0176
  710.0000      0.0177
  711.0000      0.0176
  712.0000      0.0175
  713.0000      0.0174
  714.0000      0.0174
  715.0000      0.0173
  716.0000      0.0172
  717.0000      0.0171
  718.0000      0.0171
  719.0000      0.0171
  720.0000      0.0172
  721.0000      0.0173
  722.0000      0.0174
  723.0000      0.0174
  724.0000      0.0176
  725.0000      0.0176
  726.0000      0.0176
  727.0000      0.0177
  728.0000      0.0176
  729.0000      0.0175
  730.0000      0.0174
  731.0000      0.0173
  732.0000      0.0174
  733.0000      0.0173
  734.0000      0.0173
  735.0000      0.0172
  736.0000      0.0157
  737.0000      0.0155
  738.0000      0.0155
  739.0000      0.0155
  740.0000      0.0154
  741.0000      0.0153
  742.0000      0.0153
  743.0000      0.0152
  744.0000      0.0151
  745.0000      0.0151
  746.0000      0.0151
  747.0000      0.0150
  748.0000      0.0150
  749.0000      0.0149
  750.0000      0.0148
  751.0000      0.0148
  752.0000      0.0147
  753.0000      0.0147
  754.0000      0.0147
  755.0000      0.0148
  756.0000      0.0148
  757.0000      0.0147
  758.0000      0.0148
  759.0000      0.0147
  760.0000      0.0147
  761.0000      0.0147
  762.0000      0.0147
  763.0000      0.0146
  764.0000      0.0146
  765.0000      0.0146
  766.0000      0.0146
  767.0000      0.0147
  768.0000      0.0146
  769.0000      0.0146
  770.0000      0.0145
  771.0000      0.0145
  772.0000      0.0144
  773.0000      0.0143
  774.0000      0.0143
  775.0000      0.0142
  776.0000      0.0142
  777.0000      0.0141
  778.0000      0.0141
  779.0000      0.0141
  780.0000      0.0139
  781.0000      0.0139
  782.0000      0.0139
  783.0000      0.0138
  784.0000      0.0138
  785.0000      0.0137
  786.0000      0.0137
  787.0000      0.0137
  788.0000      0.0137
  789.0000      0.0136
  790.0000      0.0136
  791.0000      0.0136
  792.0000      0.0137
  793.0000      0.0137
  794.0000      0.0138
  795.0000      0.0138
  796.0000      0.0139
  797.0000      0.0138
  798.0000      0.0139
  799.0000      0.0139
  800.0000      0.0139
