Start Wavelength:    200.0000
End Wavelength:    800.0000
Read Mode:  ABS
Read Average:      0.1000
Nanometer Interval:      1.0000
Time:      0.0000

  200.0000      0.5062
  201.0000      0.4614
  202.0000      0.4370
  203.0000      0.4152
  204.0000      0.3962
  205.0000      0.3765
  206.0000      0.3646
  207.0000      0.3502
  208.0000      0.3391
  209.0000      0.3266
  210.0000      0.3174
  211.0000      0.3068
  212.0000      0.2983
  213.0000      0.2886
  214.0000      0.2807
  215.0000      0.2734
  216.0000      0.2665
  217.0000      0.2588
  218.0000      0.2524
  219.0000      0.2456
  220.0000      0.2404
  221.0000      0.2333
  222.0000      0.2287
  223.0000      0.2237
  224.0000      0.2183
  225.0000      0.2129
  226.0000      0.2084
  227.0000      0.2039
  228.0000      0.2001
  229.0000      0.1957
  230.0000      0.1917
  231.0000      0.1883
  232.0000      0.1842
  233.0000      0.1807
  234.0000      0.1775
  235.0000      0.1749
  236.0000      0.1718
  237.0000      0.1692
  238.0000      0.1667
  239.0000      0.1646
  240.0000      0.1623
  241.0000      0.1609
  242.0000      0.1587
  243.0000      0.1574
  244.0000      0.1557
  245.0000      0.1544
  246.0000      0.1531
  247.0000      0.1521
  248.0000      0.1504
  249.0000      0.1496
  250.0000      0.1478
  251.0000      0.1471
  252.0000      0.1457
  253.0000      0.1451
  254.0000      0.1437
  255.0000      0.1433
  256.0000      0.1423
  257.0000      0.1416
  258.0000      0.1409
  259.0000      0.1401
  260.0000      0.1392
  261.0000      0.1379
  262.0000      0.1369
  263.0000      0.1359
  264.0000      0.1341
  265.0000      0.1323
  266.0000      0.1316
  267.0000      0.1307
  268.0000      0.1298
  269.0000      0.1279
  270.0000      0.1265
  271.0000      0.1257
  272.0000      0.1235
  273.0000      0.1223
  274.0000      0.1212
  275.0000      0.1196
  276.0000      0.1184
  277.0000      0.1164
  278.0000      0.1153
  279.0000      0.1133
  280.0000      0.1118
  281.0000      0.1103
  282.0000      0.1091
  283.0000      0.1075
  284.0000      0.1053
  285.0000      0.1037
  286.0000      0.1027
  287.0000      0.1004
  288.0000      0.0985
  289.0000      0.0973
  290.0000      0.0955
  291.0000      0.0936
  292.0000      0.0929
  293.0000      0.0911
  294.0000      0.0895
  295.0000      0.0876
  296.0000      0.0868
  297.0000      0.0849
  298.0000      0.0844
  299.0000      0.0829
  300.0000      0.0813
  301.0000      0.0802
  302.0000      0.0795
  303.0000      0.0781
  304.0000      0.0771
  305.0000      0.0763
  306.0000      0.0752
  307.0000      0.0748
  308.0000      0.0739
  309.0000      0.0727
  310.0000      0.0724
  311.0000      0.0705
  312.0000      0.0713
  313.0000      0.0690
  314.0000      0.0690
  315.0000      0.0683
  316.0000      0.0678
  317.0000      0.0669
  318.0000      0.0669
  319.0000      0.0658
  320.0000      0.0659
  321.0000      0.0658
  322.0000      0.0641
  323.0000      0.0631
  324.0000      0.0630
  325.0000      0.0620
  326.0000      0.0613
  327.0000      0.0607
  328.0000      0.0605
  329.0000      0.0598
  330.0000      0.0595
  331.0000      0.0582
  332.0000      0.0578
  333.0000      0.0578
  334.0000      0.0574
  335.0000      0.0572
  336.0000      0.0565
  337.0000      0.0566
  338.0000      0.0562
  339.0000      0.0558
  340.0000      0.0556
  341.0000      0.0549
  342.0000      0.0550
  343.0000      0.0545
  344.0000      0.0547
  345.0000      0.0538
  346.0000      0.0542
  347.0000      0.0538
  348.0000      0.0537
  349.0000      0.0535
  350.0000      0.0530
  351.0000      0.0528
  352.0000      0.0528
  353.0000      0.0523
  354.0000      0.0524
  355.0000      0.0517
  356.0000      0.0518
  357.0000      0.0508
  358.0000      0.0501
  359.0000      0.0509
  360.0000      0.0492
  361.0000      0.0495
  362.0000      0.0463
  363.0000      0.0483
  364.0000      0.0480
  365.0000      0.0475
  366.0000      0.0482
  367.0000      0.0482
  368.0000      0.0468
  369.0000      0.0458
  370.0000      0.0456
  371.0000      0.0458
  372.0000      0.0458
  373.0000      0.0457
  374.0000      0.0460
  375.0000      0.0451
  376.0000      0.0442
  377.0000      0.0442
  378.0000      0.0433
  379.0000      0.0434
  380.0000      0.0439
  381.0000      0.0441
  382.0000      0.0443
  383.0000      0.0429
  384.0000      0.0433
  385.0000      0.0425
  386.0000      0.0428
  387.0000      0.0424
  388.0000      0.0425
  389.0000      0.0419
  390.0000      0.0415
  391.0000      0.0420
  392.0000      0.0411
  393.0000      0.0415
  394.0000      0.0414
  395.0000      0.0409
  396.0000      0.0414
  397.0000      0.0406
  398.0000      0.0411
  399.0000      0.0405
  400.0000      0.0410
  401.0000      0.0408
  402.0000      0.0406
  403.0000      0.0406
  404.0000      0.0403
  405.0000      0.0398
  406.0000      0.0397
  407.0000      0.0396
  408.0000      0.0400
  409.0000      0.0394
  410.0000      0.0399
  411.0000      0.0391
  412.0000      0.0397
  413.0000      0.0392
  414.0000      0.0393
  415.0000      0.0392
  416.0000      0.0399
  417.0000      0.0396
  418.0000      0.0396
  419.0000      0.0394
  420.0000      0.0394
  421.0000      0.0391
  422.0000      0.0389
  423.0000      0.0389
  424.0000      0.0387
  425.0000      0.0385
  426.0000      0.0384
  427.0000      0.0383
  428.0000      0.0381
  429.0000      0.0380
  430.0000      0.0378
  431.0000      0.0375
  432.0000      0.0374
  433.0000      0.0372
  434.0000      0.0371
  435.0000      0.0368
  436.0000      0.0367
  437.0000      0.0364
  438.0000      0.0362
  439.0000      0.0359
  440.0000      0.0357
  441.0000      0.0354
  442.0000      0.0352
  443.0000      0.0349
  444.0000      0.0346
  445.0000      0.0343
  446.0000      0.0339
  447.0000      0.0337
  448.0000      0.0334
  449.0000      0.0331
  450.0000      0.0328
  451.0000      0.0326
  452.0000      0.0323
  453.0000      0.0322
  454.0000      0.0319
  455.0000      0.0318
  456.0000      0.0316
  457.0000      0.0314
  458.0000      0.0312
  459.0000      0.0311
  460.0000      0.0310
  461.0000      0.0310
  462.0000      0.0310
  463.0000      0.0310
  464.0000      0.0311
  465.0000      0.0312
  466.0000      0.0313
  467.0000      0.0312
  468.0000      0.0312
  469.0000      0.0311
  470.0000      0.0310
  471.0000      0.0309
  472.0000      0.0307
  473.0000      0.0307
  474.0000      0.0305
  475.0000      0.0304
  476.0000      0.0303
  477.0000      0.0300
  478.0000      0.0299
  479.0000      0.0297
  480.0000      0.0295
  481.0000      0.0294
  482.0000      0.0293
  483.0000      0.0292
  484.0000      0.0290
  485.0000      0.0290
  486.0000      0.0289
  487.0000      0.0289
  488.0000      0.0288
  489.0000      0.0287
  490.0000      0.0286
  491.0000      0.0285
  492.0000      0.0285
  493.0000      0.0284
  494.0000      0.0283
  495.0000      0.0283
  496.0000      0.0282
  497.0000      0.0282
  498.0000      0.0282
  499.0000      0.0281
  500.0000      0.0281
  501.0000      0.0280
  502.0000      0.0280
  503.0000      0.0279
  504.0000      0.0278
  505.0000      0.0278
  506.0000      0.0277
  507.0000      0.0276
  508.0000      0.0276
  509.0000      0.0275
  510.0000      0.0275
  511.0000      0.0274
  512.0000      0.0273
  513.0000      0.0273
  514.0000      0.0271
  515.0000      0.0270
  516.0000      0.0269
  517.0000      0.0269
  518.0000      0.0269
  519.0000      0.0268
  520.0000      0.0268
  521.0000      0.0267
  522.0000      0.0266
  523.0000      0.0265
  524.0000      0.0264
  525.0000      0.0263
  526.0000      0.0262
  527.0000      0.0261
  528.0000      0.0260
  529.0000      0.0258
  530.0000      0.0257
  531.0000      0.0257
  532.0000      0.0258
  533.0000      0.0258
  534.0000      0.0258
  535.0000      0.0258
  536.0000      0.0258
  537.0000      0.0258
  538.0000      0.0257
  539.0000      0.0256
  540.0000      0.0256
  541.0000      0.0254
  542.0000      0.0253
  543.0000      0.0252
  544.0000      0.0251
  545.0000      0.0250
  546.0000      0.0250
  547.0000      0.0249
  548.0000      0.0248
  549.0000      0.0248
  550.0000      0.0247
  551.0000      0.0246
  552.0000      0.0246
  553.0000      0.0246
  554.0000      0.0245
  555.0000      0.0245
  556.0000      0.0245
  557.0000      0.0256
  558.0000      0.0254
  559.0000      0.0253
  560.0000      0.0251
  561.0000      0.0250
  562.0000      0.0248
  563.0000      0.0247
  564.0000      0.0245
  565.0000      0.0243
  566.0000      0.0240
  567.0000      0.0237
  568.0000      0.0233
  569.0000      0.0229
  570.0000      0.0227
  571.0000      0.0226
  572.0000      0.0224
  573.0000      0.0223
  574.0000      0.0222
  575.0000      0.0222
  576.0000      0.0221
  577.0000      0.0220
  578.0000      0.0219
  579.0000      0.0218
  580.0000      0.0217
  581.0000      0.0215
  582.0000      0.0214
  583.0000      0.0213
  584.0000      0.0212
  585.0000      0.0211
  586.0000      0.0210
  587.0000      0.0209
  588.0000      0.0208
  589.0000      0.0207
  590.0000      0.0205
  591.0000      0.0203
  592.0000      0.0202
  593.0000      0.0201
  594.0000      0.0200
  595.0000      0.0199
  596.0000      0.0198
  597.0000      0.0198
  598.0000      0.0198
  599.0000      0.0197
  600.0000      0.0197
  601.0000      0.0197
  602.0000      0.0196
  603.0000      0.0196
  604.0000      0.0196
  605.0000      0.0196
  606.0000      0.0195
  607.0000      0.0195
  608.0000      0.0195
  609.0000      0.0194
  610.0000      0.0195
  611.0000      0.0194
  612.0000      0.0195
  613.0000      0.0194
  614.0000      0.0194
  615.0000      0.0195
  616.0000      0.0194
  617.0000      0.0194
  618.0000      0.0194
  619.0000      0.0194
  620.0000      0.0195
  621.0000      0.0195
  622.0000      0.0195
  623.0000      0.0195
  624.0000      0.0195
  625.0000      0.0195
  626.0000      0.0194
  627.0000      0.0194
  628.0000      0.0194
  629.0000      0.0194
  630.0000      0.0194
  631.0000      0.0194
  632.0000      0.0193
  633.0000      0.0193
  634.0000      0.0193
  635.0000      0.0193
  636.0000      0.0193
  637.0000      0.0193
  638.0000      0.0193
  639.0000      0.0192
  640.0000      0.0192
  641.0000      0.0191
  642.0000      0.0190
  643.0000      0.0190
  644.0000      0.0190
  645.0000      0.0190
  646.0000      0.0189
  647.0000      0.0189
  648.0000      0.0188
  649.0000      0.0188
  650.0000      0.0187
  651.0000      0.0187
  652.0000      0.0185
  653.0000      0.0185
  654.0000      0.0185
  655.0000      0.0185
  656.0000      0.0185
  657.0000      0.0185
  658.0000      0.0185
  659.0000      0.0186
  660.0000      0.0186
  661.0000      0.0186
  662.0000      0.0186
  663.0000      0.0186
  664.0000      0.0186
  665.0000      0.0186
  666.0000      0.0186
  667.0000      0.0186
  668.0000      0.0186
  669.0000      0.0186
  670.0000      0.0187
  671.0000      0.0186
  672.0000      0.0187
  673.0000      0.0188
  674.0000      0.0189
  675.0000      0.0189
  676.0000      0.0189
  677.0000      0.0190
  678.0000      0.0191
  679.0000      0.0192
  680.0000      0.0191
  681.0000      0.0192
  682.0000      0.0193
  683.0000      0.0194
  684.0000      0.0195
  685.0000      0.0194
  686.0000      0.0193
  687.0000      0.0193
  688.0000      0.0193
  689.0000      0.0193
  690.0000      0.0191
  691.0000      0.0191
  692.0000      0.0190
  693.0000      0.0190
  694.0000      0.0190
  695.0000      0.0189
  696.0000      0.0189
  697.0000      0.0187
  698.0000      0.0186
  699.0000      0.0185
  700.0000      0.0184
  701.0000      0.0183
  702.0000      0.0183
  703.0000      0.0183
  704.0000      0.0183
  705.0000      0.0183
  706.0000      0.0182
  707.0000      0.0182
  708.0000      0.0182
  709.0000      0.0181
  710.0000      0.0181
  711.0000      0.0180
  712.0000      0.0179
  713.0000      0.0178
  714.0000      0.0178
  715.0000      0.0177
  716.0000      0.0176
  717.0000      0.0175
  718.0000      0.0174
  719.0000      0.0174
  720.0000      0.0173
  721.0000      0.0172
  722.0000      0.0170
  723.0000      0.0169
  724.0000      0.0168
  725.0000      0.0167
  726.0000      0.0166
  727.0000      0.0165
  728.0000      0.0164
  729.0000      0.0163
  730.0000      0.0162
  731.0000      0.0161
  732.0000      0.0160
  733.0000      0.0158
  734.0000      0.0157
  735.0000      0.0156
  736.0000      0.0150
  737.0000      0.0150
  738.0000      0.0150
  739.0000      0.0150
  740.0000      0.0150
  741.0000      0.0150
  742.0000      0.0150
  743.0000      0.0150
  744.0000      0.0149
  745.0000      0.0149
  746.0000      0.0150
  747.0000      0.0150
  748.0000      0.0150
  749.0000      0.0150
  750.0000      0.0151
  751.0000      0.0151
  752.0000      0.0151
  753.0000      0.0151
  754.0000      0.0152
  755.0000      0.0153
  756.0000      0.0153
  757.0000      0.0154
  758.0000      0.0155
  759.0000      0.0155
  760.0000      0.0156
  761.0000      0.0156
  762.0000      0.0157
  763.0000      0.0157
  764.0000      0.0158
  765.0000      0.0159
  766.0000      0.0159
  767.0000      0.0159
  768.0000      0.0159
  769.0000      0.0159
  770.0000      0.0160
  771.0000      0.0160
  772.0000      0.0161
  773.0000      0.0161
  774.0000      0.0161
  775.0000      0.0162
  776.0000      0.0163
  777.0000      0.0163
  778.0000      0.0163
  779.0000      0.0163
  780.0000      0.0163
  781.0000      0.0164
  782.0000      0.0164
  783.0000      0.0165
  784.0000      0.0165
  785.0000      0.0165
  786.0000      0.0166
  787.0000      0.0167
  788.0000      0.0167
  789.0000      0.0167
  790.0000      0.0168
  791.0000      0.0168
  792.0000      0.0168
  793.0000      0.0169
  794.0000      0.0169
  795.0000      0.0170
  796.0000      0.0170
  797.0000      0.0170
  798.0000      0.0169
  799.0000      0.0169
  800.0000      0.0168
