Start Wavelength:    200.0000
End Wavelength:    800.0000
Read Mode:  ABS
Read Average:      0.1000
Nanometer Interval:      1.0000
Time:      0.0000

  200.0000      0.0084
  201.0000      0.0091
  202.0000      0.0086
  203.0000      0.0079
  204.0000      0.0083
  205.0000      0.0071
  206.0000      0.0073
  207.0000      0.0070
  208.0000      0.0065
  209.0000      0.0065
  210.0000      0.0059
  211.0000      0.0061
  212.0000      0.0052
  213.0000      0.0051
  214.0000      0.0050
  215.0000      0.0048
  216.0000      0.0045
  217.0000      0.0048
  218.0000      0.0042
  219.0000      0.0044
  220.0000      0.0038
  221.0000      0.0039
  222.0000      0.0042
  223.0000      0.0041
  224.0000      0.0037
  225.0000      0.0036
  226.0000      0.0035
  227.0000      0.0032
  228.0000      0.0034
  229.0000      0.0037
  230.0000      0.0029
  231.0000      0.0036
  232.0000      0.0031
  233.0000      0.0032
  234.0000      0.0032
  235.0000      0.0033
  236.0000      0.0034
  237.0000      0.0035
  238.0000      0.0030
  239.0000      0.0032
  240.0000      0.0031
  241.0000      0.0036
  242.0000      0.0028
  243.0000      0.0031
  244.0000      0.0027
  245.0000      0.0028
  246.0000      0.0032
  247.0000      0.0031
  248.0000      0.0028
  249.0000      0.0031
  250.0000      0.0028
  251.0000      0.0033
  252.0000      0.0030
  253.0000      0.0035
  254.0000      0.0028
  255.0000      0.0033
  256.0000      0.0032
  257.0000      0.0030
  258.0000      0.0030
  259.0000      0.0028
  260.0000      0.0028
  261.0000      0.0031
  262.0000      0.0029
  263.0000      0.0030
  264.0000      0.0031
  265.0000      0.0025
  266.0000      0.0029
  267.0000      0.0031
  268.0000      0.0031
  269.0000      0.0028
  270.0000      0.0023
  271.0000      0.0036
  272.0000      0.0028
  273.0000      0.0033
  274.0000      0.0034
  275.0000      0.0030
  276.0000      0.0032
  277.0000      0.0026
  278.0000      0.0029
  279.0000      0.0031
  280.0000      0.0027
  281.0000      0.0029
  282.0000      0.0029
  283.0000      0.0032
  284.0000      0.0028
  285.0000      0.0031
  286.0000      0.0029
  287.0000      0.0028
  288.0000      0.0024
  289.0000      0.0032
  290.0000      0.0022
  291.0000      0.0024
  292.0000      0.0030
  293.0000      0.0026
  294.0000      0.0029
  295.0000      0.0026
  296.0000      0.0027
  297.0000      0.0026
  298.0000      0.0027
  299.0000      0.0029
  300.0000      0.0023
  301.0000      0.0027
  302.0000      0.0025
  303.0000      0.0027
  304.0000      0.0019
  305.0000      0.0028
  306.0000      0.0018
  307.0000      0.0032
  308.0000      0.0022
  309.0000      0.0024
  310.0000      0.0025
  311.0000      0.0022
  312.0000      0.0021
  313.0000      0.0023
  314.0000      0.0022
  315.0000      0.0028
  316.0000      0.0022
  317.0000      0.0026
  318.0000      0.0027
  319.0000      0.0027
  320.0000      0.0021
  321.0000      0.0031
  322.0000      0.0025
  323.0000      0.0026
  324.0000      0.0026
  325.0000      0.0024
  326.0000      0.0025
  327.0000      0.0020
  328.0000      0.0025
  329.0000      0.0022
  330.0000      0.0022
  331.0000      0.0020
  332.0000      0.0020
  333.0000      0.0021
  334.0000      0.0019
  335.0000      0.0024
  336.0000      0.0018
  337.0000      0.0023
  338.0000      0.0023
  339.0000      0.0021
  340.0000      0.0022
  341.0000      0.0021
  342.0000      0.0020
  343.0000      0.0019
  344.0000      0.0023
  345.0000      0.0020
  346.0000      0.0018
  347.0000      0.0018
  348.0000      0.0016
  349.0000      0.0020
  350.0000      0.0015
  351.0000      0.0020
  352.0000      0.0016
  353.0000      0.0021
  354.0000      0.0017
  355.0000      0.0018
  356.0000      0.0020
  357.0000      0.0027
  358.0000      0.0022
  359.0000      0.0030
  360.0000      0.0019
  361.0000      0.0009
  362.0000      0.0006
  363.0000      0.0009
  364.0000      0.0025
  365.0000      0.0014
  366.0000      0.0027
  367.0000      0.0018
  368.0000      0.0032
  369.0000      0.0012
  370.0000      0.0015
  371.0000      0.0006
  372.0000      0.0024
  373.0000      0.0021
  374.0000      0.0027
  375.0000      0.0023
  376.0000      0.0017
  377.0000      0.0012
  378.0000      0.0007
  379.0000      0.0014
  380.0000      0.0017
  381.0000      0.0018
  382.0000      0.0025
  383.0000      0.0018
  384.0000      0.0018
  385.0000      0.0012
  386.0000      0.0014
  387.0000      0.0017
  388.0000      0.0017
  389.0000      0.0015
  390.0000      0.0009
  391.0000      0.0014
  392.0000      0.0007
  393.0000      0.0015
  394.0000      0.0012
  395.0000      0.0018
  396.0000      0.0015
  397.0000      0.0015
  398.0000      0.0013
  399.0000      0.0015
  400.0000      0.0015
  401.0000      0.0016
  402.0000      0.0010
  403.0000      0.0014
  404.0000      0.0012
  405.0000      0.0008
  406.0000      0.0006
  407.0000      0.0014
  408.0000      0.0014
  409.0000      0.0011
  410.0000      0.0016
  411.0000      0.0009
  412.0000      0.0015
  413.0000      0.0014
  414.0000      0.0017
  415.0000      0.0014
  416.0000      0.0018
  417.0000      0.0017
  418.0000      0.0017
  419.0000      0.0015
  420.0000      0.0017
  421.0000      0.0015
  422.0000      0.0014
  423.0000      0.0016
  424.0000      0.0014
  425.0000      0.0014
  426.0000      0.0014
  427.0000      0.0015
  428.0000      0.0015
  429.0000      0.0015
  430.0000      0.0015
  431.0000      0.0014
  432.0000      0.0014
  433.0000      0.0015
  434.0000      0.0015
  435.0000      0.0015
  436.0000      0.0015
  437.0000      0.0015
  438.0000      0.0014
  439.0000      0.0014
  440.0000      0.0014
  441.0000      0.0014
  442.0000      0.0013
  443.0000      0.0013
  444.0000      0.0013
  445.0000      0.0012
  446.0000      0.0011
  447.0000      0.0012
  448.0000      0.0011
  449.0000      0.0012
  450.0000      0.0011
  451.0000      0.0011
  452.0000      0.0011
  453.0000      0.0010
  454.0000      0.0010
  455.0000      0.0009
  456.0000      0.0010
  457.0000      0.0009
  458.0000      0.0009
  459.0000      0.0009
  460.0000      0.0010
  461.0000      0.0010
  462.0000      0.0011
  463.0000      0.0011
  464.0000      0.0011
  465.0000      0.0012
  466.0000      0.0012
  467.0000      0.0012
  468.0000      0.0012
  469.0000      0.0013
  470.0000      0.0012
  471.0000      0.0012
  472.0000      0.0011
  473.0000      0.0012
  474.0000      0.0011
  475.0000      0.0011
  476.0000      0.0011
  477.0000      0.0010
  478.0000      0.0010
  479.0000      0.0009
  480.0000      0.0009
  481.0000      0.0009
  482.0000      0.0009
  483.0000      0.0010
  484.0000      0.0009
  485.0000      0.0009
  486.0000      0.0009
  487.0000      0.0009
  488.0000      0.0009
  489.0000      0.0009
  490.0000      0.0008
  491.0000      0.0008
  492.0000      0.0008
  493.0000      0.0008
  494.0000      0.0008
  495.0000      0.0008
  496.0000      0.0007
  497.0000      0.0007
  498.0000      0.0007
  499.0000      0.0007
  500.0000      0.0007
  501.0000      0.0007
  502.0000      0.0007
  503.0000      0.0007
  504.0000      0.0007
  505.0000      0.0007
  506.0000      0.0006
  507.0000      0.0006
  508.0000      0.0006
  509.0000      0.0006
  510.0000      0.0005
  511.0000      0.0005
  512.0000      0.0005
  513.0000      0.0005
  514.0000      0.0005
  515.0000      0.0005
  516.0000      0.0004
  517.0000      0.0004
  518.0000      0.0005
  519.0000      0.0004
  520.0000      0.0004
  521.0000      0.0004
  522.0000      0.0004
  523.0000      0.0004
  524.0000      0.0004
  525.0000      0.0004
  526.0000      0.0003
  527.0000      0.0003
  528.0000      0.0004
  529.0000      0.0003
  530.0000      0.0004
  531.0000      0.0004
  532.0000      0.0004
  533.0000      0.0004
  534.0000      0.0004
  535.0000      0.0004
  536.0000      0.0004
  537.0000      0.0004
  538.0000      0.0004
  539.0000      0.0003
  540.0000      0.0003
  541.0000      0.0003
  542.0000      0.0003
  543.0000      0.0003
  544.0000      0.0003
  545.0000      0.0003
  546.0000      0.0002
  547.0000      0.0002
  548.0000      0.0002
  549.0000      0.0002
  550.0000      0.0002
  551.0000      0.0001
  552.0000      0.0001
  553.0000      0.0002
  554.0000      0.0001
  555.0000      0.0002
  556.0000      0.0002
  557.0000      0.0006
  558.0000      0.0006
  559.0000      0.0006
  560.0000      0.0005
  561.0000      0.0005
  562.0000      0.0005
  563.0000      0.0005
  564.0000      0.0005
  565.0000      0.0005
  566.0000      0.0004
  567.0000      0.0004
  568.0000      0.0004
  569.0000      0.0003
  570.0000      0.0003
  571.0000      0.0003
  572.0000      0.0003
  573.0000      0.0003
  574.0000      0.0003
  575.0000      0.0003
  576.0000      0.0003
  577.0000      0.0003
  578.0000      0.0003
  579.0000      0.0003
  580.0000      0.0002
  581.0000      0.0002
  582.0000      0.0002
  583.0000      0.0002
  584.0000      0.0002
  585.0000      0.0002
  586.0000      0.0002
  587.0000      0.0002
  588.0000      0.0002
  589.0000      0.0002
  590.0000      0.0002
  591.0000      0.0002
  592.0000      0.0002
  593.0000      0.0002
  594.0000      0.0001
  595.0000      0.0001
  596.0000      0.0001
  597.0000      0.0001
  598.0000      0.0002
  599.0000      0.0001
  600.0000      0.0001
  601.0000      0.0001
  602.0000      0.0002
  603.0000      0.0002
  604.0000      0.0002
  605.0000      0.0002
  606.0000      0.0002
  607.0000      0.0002
  608.0000      0.0002
  609.0000      0.0002
  610.0000      0.0002
  611.0000      0.0002
  612.0000      0.0002
  613.0000      0.0002
  614.0000      0.0002
  615.0000      0.0002
  616.0000      0.0001
  617.0000      0.0001
  618.0000      0.0002
  619.0000      0.0002
  620.0000      0.0002
  621.0000      0.0002
  622.0000      0.0003
  623.0000      0.0003
  624.0000      0.0003
  625.0000      0.0003
  626.0000      0.0003
  627.0000      0.0003
  628.0000      0.0003
  629.0000      0.0003
  630.0000      0.0003
  631.0000      0.0003
  632.0000      0.0003
  633.0000      0.0003
  634.0000      0.0004
  635.0000      0.0004
  636.0000      0.0004
  637.0000      0.0004
  638.0000      0.0004
  639.0000      0.0004
  640.0000      0.0004
  641.0000      0.0004
  642.0000      0.0004
  643.0000      0.0004
  644.0000      0.0004
  645.0000      0.0004
  646.0000      0.0005
  647.0000      0.0004
  648.0000      0.0004
  649.0000      0.0004
  650.0000      0.0004
  651.0000      0.0004
  652.0000      0.0004
  653.0000      0.0004
  654.0000      0.0004
  655.0000      0.0004
  656.0000      0.0004
  657.0000      0.0004
  658.0000      0.0004
  659.0000      0.0005
  660.0000      0.0005
  661.0000      0.0005
  662.0000      0.0005
  663.0000      0.0005
  664.0000      0.0005
  665.0000      0.0005
  666.0000      0.0005
  667.0000      0.0005
  668.0000      0.0005
  669.0000      0.0005
  670.0000      0.0006
  671.0000      0.0005
  672.0000      0.0006
  673.0000      0.0006
  674.0000      0.0006
  675.0000      0.0006
  676.0000      0.0006
  677.0000      0.0006
  678.0000      0.0006
  679.0000      0.0006
  680.0000      0.0006
  681.0000      0.0006
  682.0000      0.0005
  683.0000      0.0006
  684.0000      0.0006
  685.0000      0.0006
  686.0000      0.0005
  687.0000      0.0005
  688.0000      0.0005
  689.0000      0.0005
  690.0000      0.0004
  691.0000      0.0004
  692.0000      0.0004
  693.0000      0.0004
  694.0000      0.0004
  695.0000      0.0004
  696.0000      0.0004
  697.0000      0.0004
  698.0000      0.0004
  699.0000      0.0003
  700.0000      0.0004
  701.0000      0.0004
  702.0000      0.0003
  703.0000      0.0004
  704.0000      0.0003
  705.0000      0.0003
  706.0000      0.0003
  707.0000      0.0003
  708.0000      0.0003
  709.0000      0.0003
  710.0000      0.0004
  711.0000      0.0004
  712.0000      0.0004
  713.0000      0.0003
  714.0000      0.0004
  715.0000      0.0004
  716.0000      0.0003
  717.0000      0.0004
  718.0000      0.0004
  719.0000      0.0003
  720.0000      0.0003
  721.0000      0.0004
  722.0000      0.0004
  723.0000      0.0004
  724.0000      0.0003
  725.0000      0.0004
  726.0000      0.0004
  727.0000      0.0003
  728.0000      0.0003
  729.0000      0.0003
  730.0000      0.0003
  731.0000      0.0003
  732.0000      0.0003
  733.0000      0.0003
  734.0000      0.0003
  735.0000      0.0002
  736.0000      0.0004
  737.0000      0.0004
  738.0000      0.0004
  739.0000      0.0004
  740.0000      0.0004
  741.0000      0.0003
  742.0000      0.0003
  743.0000      0.0003
  744.0000      0.0003
  745.0000      0.0003
  746.0000      0.0003
  747.0000      0.0003
  748.0000      0.0004
  749.0000      0.0003
  750.0000      0.0003
  751.0000      0.0003
  752.0000      0.0003
  753.0000      0.0003
  754.0000      0.0003
  755.0000      0.0003
  756.0000      0.0002
  757.0000      0.0002
  758.0000      0.0003
  759.0000      0.0003
  760.0000      0.0003
  761.0000      0.0003
  762.0000      0.0003
  763.0000      0.0003
  764.0000      0.0003
  765.0000      0.0003
  766.0000      0.0003
  767.0000      0.0003
  768.0000      0.0003
  769.0000      0.0003
  770.0000      0.0003
  771.0000      0.0003
  772.0000      0.0003
  773.0000      0.0003
  774.0000      0.0002
  775.0000      0.0003
  776.0000      0.0002
  777.0000      0.0002
  778.0000      0.0002
  779.0000      0.0002
  780.0000      0.0002
  781.0000      0.0002
  782.0000      0.0002
  783.0000      0.0002
  784.0000      0.0002
  785.0000      0.0002
  786.0000      0.0002
  787.0000      0.0003
  788.0000      0.0002
  789.0000      0.0002
  790.0000      0.0002
  791.0000      0.0002
  792.0000      0.0002
  793.0000      0.0002
  794.0000      0.0002
  795.0000      0.0003
  796.0000      0.0003
  797.0000      0.0002
  798.0000      0.0002
  799.0000      0.0002
  800.0000      0.0001
