Start Wavelength:    200.0000
End Wavelength:    800.0000
Read Mode:  ABS
Read Average:      0.1000
Nanometer Interval:      1.0000
Time:      0.0000

  200.0000      0.5292
  201.0000      0.4836
  202.0000      0.4588
  203.0000      0.4394
  204.0000      0.4179
  205.0000      0.4020
  206.0000      0.3879
  207.0000      0.3733
  208.0000      0.3615
  209.0000      0.3493
  210.0000      0.3376
  211.0000      0.3279
  212.0000      0.3186
  213.0000      0.3076
  214.0000      0.2989
  215.0000      0.2901
  216.0000      0.2820
  217.0000      0.2737
  218.0000      0.2667
  219.0000      0.2595
  220.0000      0.2532
  221.0000      0.2466
  222.0000      0.2404
  223.0000      0.2351
  224.0000      0.2297
  225.0000      0.2239
  226.0000      0.2192
  227.0000      0.2144
  228.0000      0.2103
  229.0000      0.2056
  230.0000      0.2014
  231.0000      0.1973
  232.0000      0.1932
  233.0000      0.1899
  234.0000      0.1864
  235.0000      0.1830
  236.0000      0.1803
  237.0000      0.1766
  238.0000      0.1739
  239.0000      0.1716
  240.0000      0.1690
  241.0000      0.1667
  242.0000      0.1642
  243.0000      0.1628
  244.0000      0.1605
  245.0000      0.1590
  246.0000      0.1575
  247.0000      0.1558
  248.0000      0.1547
  249.0000      0.1533
  250.0000      0.1522
  251.0000      0.1512
  252.0000      0.1498
  253.0000      0.1487
  254.0000      0.1477
  255.0000      0.1468
  256.0000      0.1459
  257.0000      0.1443
  258.0000      0.1439
  259.0000      0.1422
  260.0000      0.1414
  261.0000      0.1408
  262.0000      0.1395
  263.0000      0.1384
  264.0000      0.1373
  265.0000      0.1362
  266.0000      0.1350
  267.0000      0.1338
  268.0000      0.1332
  269.0000      0.1314
  270.0000      0.1299
  271.0000      0.1285
  272.0000      0.1267
  273.0000      0.1258
  274.0000      0.1244
  275.0000      0.1226
  276.0000      0.1215
  277.0000      0.1190
  278.0000      0.1172
  279.0000      0.1163
  280.0000      0.1144
  281.0000      0.1128
  282.0000      0.1114
  283.0000      0.1101
  284.0000      0.1078
  285.0000      0.1070
  286.0000      0.1054
  287.0000      0.1035
  288.0000      0.1015
  289.0000      0.1004
  290.0000      0.0988
  291.0000      0.0967
  292.0000      0.0960
  293.0000      0.0937
  294.0000      0.0924
  295.0000      0.0916
  296.0000      0.0895
  297.0000      0.0884
  298.0000      0.0868
  299.0000      0.0859
  300.0000      0.0851
  301.0000      0.0838
  302.0000      0.0824
  303.0000      0.0815
  304.0000      0.0805
  305.0000      0.0796
  306.0000      0.0783
  307.0000      0.0780
  308.0000      0.0770
  309.0000      0.0759
  310.0000      0.0758
  311.0000      0.0745
  312.0000      0.0738
  313.0000      0.0732
  314.0000      0.0721
  315.0000      0.0716
  316.0000      0.0707
  317.0000      0.0704
  318.0000      0.0696
  319.0000      0.0687
  320.0000      0.0682
  321.0000      0.0680
  322.0000      0.0677
  323.0000      0.0663
  324.0000      0.0659
  325.0000      0.0655
  326.0000      0.0641
  327.0000      0.0646
  328.0000      0.0637
  329.0000      0.0631
  330.0000      0.0627
  331.0000      0.0622
  332.0000      0.0618
  333.0000      0.0616
  334.0000      0.0610
  335.0000      0.0604
  336.0000      0.0601
  337.0000      0.0601
  338.0000      0.0591
  339.0000      0.0590
  340.0000      0.0583
  341.0000      0.0579
  342.0000      0.0580
  343.0000      0.0576
  344.0000      0.0571
  345.0000      0.0570
  346.0000      0.0562
  347.0000      0.0562
  348.0000      0.0556
  349.0000      0.0558
  350.0000      0.0551
  351.0000      0.0549
  352.0000      0.0549
  353.0000      0.0542
  354.0000      0.0543
  355.0000      0.0536
  356.0000      0.0532
  357.0000      0.0525
  358.0000      0.0532
  359.0000      0.0533
  360.0000      0.0520
  361.0000      0.0527
  362.0000      0.0530
  363.0000      0.0513
  364.0000      0.0519
  365.0000      0.0512
  366.0000      0.0511
  367.0000      0.0509
  368.0000      0.0515
  369.0000      0.0485
  370.0000      0.0509
  371.0000      0.0503
  372.0000      0.0500
  373.0000      0.0496
  374.0000      0.0483
  375.0000      0.0498
  376.0000      0.0493
  377.0000      0.0490
  378.0000      0.0483
  379.0000      0.0482
  380.0000      0.0483
  381.0000      0.0477
  382.0000      0.0488
  383.0000      0.0472
  384.0000      0.0468
  385.0000      0.0476
  386.0000      0.0465
  387.0000      0.0473
  388.0000      0.0466
  389.0000      0.0461
  390.0000      0.0464
  391.0000      0.0463
  392.0000      0.0453
  393.0000      0.0458
  394.0000      0.0455
  395.0000      0.0448
  396.0000      0.0448
  397.0000      0.0451
  398.0000      0.0445
  399.0000      0.0444
  400.0000      0.0448
  401.0000      0.0441
  402.0000      0.0442
  403.0000      0.0441
  404.0000      0.0437
  405.0000      0.0438
  406.0000      0.0439
  407.0000      0.0435
  408.0000      0.0434
  409.0000      0.0436
  410.0000      0.0430
  411.0000      0.0436
  412.0000      0.0433
  413.0000      0.0432
  414.0000      0.0437
  415.0000      0.0432
  416.0000      0.0436
  417.0000      0.0434
  418.0000      0.0432
  419.0000      0.0431
  420.0000      0.0430
  421.0000      0.0428
  422.0000      0.0427
  423.0000      0.0423
  424.0000      0.0423
  425.0000      0.0421
  426.0000      0.0420
  427.0000      0.0419
  428.0000      0.0417
  429.0000      0.0417
  430.0000      0.0416
  431.0000      0.0415
  432.0000      0.0413
  433.0000      0.0412
  434.0000      0.0412
  435.0000      0.0411
  436.0000      0.0410
  437.0000      0.0408
  438.0000      0.0407
  439.0000      0.0405
  440.0000      0.0402
  441.0000      0.0400
  442.0000      0.0398
  443.0000      0.0395
  444.0000      0.0393
  445.0000      0.0390
  446.0000      0.0388
  447.0000      0.0385
  448.0000      0.0383
  449.0000      0.0381
  450.0000      0.0378
  451.0000      0.0375
  452.0000      0.0372
  453.0000      0.0369
  454.0000      0.0366
  455.0000      0.0364
  456.0000      0.0362
  457.0000      0.0359
  458.0000      0.0359
  459.0000      0.0357
  460.0000      0.0356
  461.0000      0.0355
  462.0000      0.0354
  463.0000      0.0356
  464.0000      0.0356
  465.0000      0.0356
  466.0000      0.0356
  467.0000      0.0356
  468.0000      0.0354
  469.0000      0.0353
  470.0000      0.0351
  471.0000      0.0350
  472.0000      0.0349
  473.0000      0.0348
  474.0000      0.0347
  475.0000      0.0345
  476.0000      0.0344
  477.0000      0.0343
  478.0000      0.0341
  479.0000      0.0340
  480.0000      0.0338
  481.0000      0.0337
  482.0000      0.0336
  483.0000      0.0336
  484.0000      0.0334
  485.0000      0.0334
  486.0000      0.0333
  487.0000      0.0333
  488.0000      0.0332
  489.0000      0.0332
  490.0000      0.0331
  491.0000      0.0331
  492.0000      0.0330
  493.0000      0.0329
  494.0000      0.0328
  495.0000      0.0327
  496.0000      0.0326
  497.0000      0.0325
  498.0000      0.0324
  499.0000      0.0323
  500.0000      0.0322
  501.0000      0.0321
  502.0000      0.0321
  503.0000      0.0320
  504.0000      0.0318
  505.0000      0.0317
  506.0000      0.0316
  507.0000      0.0314
  508.0000      0.0313
  509.0000      0.0312
  510.0000      0.0310
  511.0000      0.0310
  512.0000      0.0309
  513.0000      0.0308
  514.0000      0.0307
  515.0000      0.0306
  516.0000      0.0305
  517.0000      0.0304
  518.0000      0.0303
  519.0000      0.0303
  520.0000      0.0302
  521.0000      0.0301
  522.0000      0.0300
  523.0000      0.0300
  524.0000      0.0298
  525.0000      0.0297
  526.0000      0.0296
  527.0000      0.0295
  528.0000      0.0294
  529.0000      0.0293
  530.0000      0.0292
  531.0000      0.0290
  532.0000      0.0289
  533.0000      0.0289
  534.0000      0.0288
  535.0000      0.0287
  536.0000      0.0287
  537.0000      0.0285
  538.0000      0.0285
  539.0000      0.0283
  540.0000      0.0282
  541.0000      0.0281
  542.0000      0.0280
  543.0000      0.0279
  544.0000      0.0278
  545.0000      0.0277
  546.0000      0.0276
  547.0000      0.0275
  548.0000      0.0274
  549.0000      0.0273
  550.0000      0.0272
  551.0000      0.0271
  552.0000      0.0270
  553.0000      0.0269
  554.0000      0.0269
  555.0000      0.0267
  556.0000      0.0266
  557.0000      0.0266
  558.0000      0.0265
  559.0000      0.0264
  560.0000      0.0264
  561.0000      0.0263
  562.0000      0.0263
  563.0000      0.0262
  564.0000      0.0261
  565.0000      0.0261
  566.0000      0.0260
  567.0000      0.0259
  568.0000      0.0258
  569.0000      0.0258
  570.0000      0.0257
  571.0000      0.0256
  572.0000      0.0256
  573.0000      0.0255
  574.0000      0.0255
  575.0000      0.0254
  576.0000      0.0254
  577.0000      0.0253
  578.0000      0.0252
  579.0000      0.0252
  580.0000      0.0252
  581.0000      0.0252
  582.0000      0.0252
  583.0000      0.0251
  584.0000      0.0251
  585.0000      0.0250
  586.0000      0.0250
  587.0000      0.0250
  588.0000      0.0250
  589.0000      0.0250
  590.0000      0.0250
  591.0000      0.0250
  592.0000      0.0250
  593.0000      0.0250
  594.0000      0.0251
  595.0000      0.0250
  596.0000      0.0250
  597.0000      0.0250
  598.0000      0.0249
  599.0000      0.0248
  600.0000      0.0248
  601.0000      0.0248
  602.0000      0.0248
  603.0000      0.0247
  604.0000      0.0248
  605.0000      0.0247
  606.0000      0.0247
  607.0000      0.0247
  608.0000      0.0247
  609.0000      0.0247
  610.0000      0.0247
  611.0000      0.0246
  612.0000      0.0245
  613.0000      0.0245
  614.0000      0.0245
  615.0000      0.0246
  616.0000      0.0245
  617.0000      0.0245
  618.0000      0.0244
  619.0000      0.0243
  620.0000      0.0242
  621.0000      0.0242
  622.0000      0.0242
  623.0000      0.0242
  624.0000      0.0241
  625.0000      0.0241
  626.0000      0.0240
  627.0000      0.0240
  628.0000      0.0240
  629.0000      0.0239
  630.0000      0.0239
  631.0000      0.0239
  632.0000      0.0239
  633.0000      0.0239
  634.0000      0.0239
  635.0000      0.0238
  636.0000      0.0238
  637.0000      0.0238
  638.0000      0.0237
  639.0000      0.0236
  640.0000      0.0236
  641.0000      0.0235
  642.0000      0.0235
  643.0000      0.0235
  644.0000      0.0234
  645.0000      0.0234
  646.0000      0.0234
  647.0000      0.0233
  648.0000      0.0233
  649.0000      0.0233
  650.0000      0.0233
  651.0000      0.0233
  652.0000      0.0232
  653.0000      0.0232
  654.0000      0.0231
  655.0000      0.0231
  656.0000      0.0230
  657.0000      0.0230
  658.0000      0.0230
  659.0000      0.0230
  660.0000      0.0230
  661.0000      0.0230
  662.0000      0.0230
  663.0000      0.0231
  664.0000      0.0231
  665.0000      0.0232
  666.0000      0.0232
  667.0000      0.0233
  668.0000      0.0233
  669.0000      0.0234
  670.0000      0.0234
  671.0000      0.0234
  672.0000      0.0234
  673.0000      0.0234
  674.0000      0.0234
  675.0000      0.0234
  676.0000      0.0234
  677.0000      0.0235
  678.0000      0.0235
  679.0000      0.0235
  680.0000      0.0234
  681.0000      0.0234
  682.0000      0.0233
  683.0000      0.0232
  684.0000      0.0231
  685.0000      0.0229
  686.0000      0.0228
  687.0000      0.0226
  688.0000      0.0225
  689.0000      0.0223
  690.0000      0.0221
  691.0000      0.0219
  692.0000      0.0218
  693.0000      0.0217
  694.0000      0.0215
  695.0000      0.0214
  696.0000      0.0213
  697.0000      0.0211
  698.0000      0.0210
  699.0000      0.0208
  700.0000      0.0208
  701.0000      0.0207
  702.0000      0.0206
  703.0000      0.0205
  704.0000      0.0205
  705.0000      0.0204
  706.0000      0.0203
  707.0000      0.0202
  708.0000      0.0203
  709.0000      0.0202
  710.0000      0.0202
  711.0000      0.0201
  712.0000      0.0200
  713.0000      0.0200
  714.0000      0.0199
  715.0000      0.0199
  716.0000      0.0199
  717.0000      0.0199
  718.0000      0.0198
  719.0000      0.0198
  720.0000      0.0198
  721.0000      0.0198
  722.0000      0.0197
  723.0000      0.0197
  724.0000      0.0196
  725.0000      0.0196
  726.0000      0.0196
  727.0000      0.0196
  728.0000      0.0195
  729.0000      0.0195
  730.0000      0.0195
  731.0000      0.0195
  732.0000      0.0195
  733.0000      0.0195
  734.0000      0.0195
  735.0000      0.0196
  736.0000      0.0195
  737.0000      0.0195
  738.0000      0.0195
  739.0000      0.0194
  740.0000      0.0194
  741.0000      0.0193
  742.0000      0.0192
  743.0000      0.0191
  744.0000      0.0192
  745.0000      0.0191
  746.0000      0.0191
  747.0000      0.0191
  748.0000      0.0190
  749.0000      0.0190
  750.0000      0.0189
  751.0000      0.0189
  752.0000      0.0188
  753.0000      0.0189
  754.0000      0.0189
  755.0000      0.0188
  756.0000      0.0188
  757.0000      0.0188
  758.0000      0.0187
  759.0000      0.0187
  760.0000      0.0187
  761.0000      0.0187
  762.0000      0.0187
  763.0000      0.0187
  764.0000      0.0186
  765.0000      0.0187
  766.0000      0.0187
  767.0000      0.0187
  768.0000      0.0187
  769.0000      0.0187
  770.0000      0.0187
  771.0000      0.0186
  772.0000      0.0186
  773.0000      0.0187
  774.0000      0.0186
  775.0000      0.0186
  776.0000      0.0185
  777.0000      0.0186
  778.0000      0.0185
  779.0000      0.0185
  780.0000      0.0185
  781.0000      0.0184
  782.0000      0.0184
  783.0000      0.0183
  784.0000      0.0183
  785.0000      0.0182
  786.0000      0.0181
  787.0000      0.0180
  788.0000      0.0180
  789.0000      0.0179
  790.0000      0.0178
  791.0000      0.0178
  792.0000      0.0177
  793.0000      0.0178
  794.0000      0.0176
  795.0000      0.0176
  796.0000      0.0176
  797.0000      0.0175
  798.0000      0.0175
  799.0000      0.0174
  800.0000      0.0173
