Start Wavelength:    200.0000
End Wavelength:    800.0000
Read Mode:  ABS
Read Average:      0.1000
Nanometer Interval:      1.0000
Time:      0.0000

  200.0000      0.5535
  201.0000      0.5078
  202.0000      0.4826
  203.0000      0.4604
  204.0000      0.4410
  205.0000      0.4226
  206.0000      0.4080
  207.0000      0.3950
  208.0000      0.3801
  209.0000      0.3671
  210.0000      0.3561
  211.0000      0.3434
  212.0000      0.3329
  213.0000      0.3217
  214.0000      0.3105
  215.0000      0.3009
  216.0000      0.2913
  217.0000      0.2812
  218.0000      0.2729
  219.0000      0.2649
  220.0000      0.2566
  221.0000      0.2483
  222.0000      0.2418
  223.0000      0.2346
  224.0000      0.2284
  225.0000      0.2222
  226.0000      0.2158
  227.0000      0.2106
  228.0000      0.2061
  229.0000      0.2010
  230.0000      0.1959
  231.0000      0.1919
  232.0000      0.1877
  233.0000      0.1828
  234.0000      0.1796
  235.0000      0.1758
  236.0000      0.1725
  237.0000      0.1694
  238.0000      0.1658
  239.0000      0.1630
  240.0000      0.1606
  241.0000      0.1578
  242.0000      0.1556
  243.0000      0.1538
  244.0000      0.1516
  245.0000      0.1498
  246.0000      0.1483
  247.0000      0.1464
  248.0000      0.1446
  249.0000      0.1435
  250.0000      0.1422
  251.0000      0.1415
  252.0000      0.1402
  253.0000      0.1384
  254.0000      0.1377
  255.0000      0.1364
  256.0000      0.1353
  257.0000      0.1343
  258.0000      0.1338
  259.0000      0.1326
  260.0000      0.1320
  261.0000      0.1310
  262.0000      0.1296
  263.0000      0.1293
  264.0000      0.1279
  265.0000      0.1265
  266.0000      0.1262
  267.0000      0.1243
  268.0000      0.1232
  269.0000      0.1220
  270.0000      0.1208
  271.0000      0.1191
  272.0000      0.1180
  273.0000      0.1170
  274.0000      0.1153
  275.0000      0.1143
  276.0000      0.1132
  277.0000      0.1106
  278.0000      0.1093
  279.0000      0.1081
  280.0000      0.1063
  281.0000      0.1051
  282.0000      0.1036
  283.0000      0.1018
  284.0000      0.1004
  285.0000      0.0989
  286.0000      0.0973
  287.0000      0.0960
  288.0000      0.0945
  289.0000      0.0925
  290.0000      0.0914
  291.0000      0.0896
  292.0000      0.0882
  293.0000      0.0867
  294.0000      0.0853
  295.0000      0.0840
  296.0000      0.0827
  297.0000      0.0815
  298.0000      0.0795
  299.0000      0.0788
  300.0000      0.0780
  301.0000      0.0759
  302.0000      0.0754
  303.0000      0.0746
  304.0000      0.0730
  305.0000      0.0729
  306.0000      0.0712
  307.0000      0.0709
  308.0000      0.0699
  309.0000      0.0688
  310.0000      0.0684
  311.0000      0.0672
  312.0000      0.0666
  313.0000      0.0660
  314.0000      0.0648
  315.0000      0.0644
  316.0000      0.0639
  317.0000      0.0631
  318.0000      0.0625
  319.0000      0.0618
  320.0000      0.0604
  321.0000      0.0613
  322.0000      0.0597
  323.0000      0.0594
  324.0000      0.0589
  325.0000      0.0578
  326.0000      0.0576
  327.0000      0.0574
  328.0000      0.0566
  329.0000      0.0567
  330.0000      0.0556
  331.0000      0.0549
  332.0000      0.0550
  333.0000      0.0544
  334.0000      0.0541
  335.0000      0.0538
  336.0000      0.0533
  337.0000      0.0529
  338.0000      0.0522
  339.0000      0.0522
  340.0000      0.0513
  341.0000      0.0511
  342.0000      0.0513
  343.0000      0.0503
  344.0000      0.0501
  345.0000      0.0497
  346.0000      0.0492
  347.0000      0.0489
  348.0000      0.0485
  349.0000      0.0486
  350.0000      0.0477
  351.0000      0.0478
  352.0000      0.0477
  353.0000      0.0468
  354.0000      0.0469
  355.0000      0.0461
  356.0000      0.0461
  357.0000      0.0457
  358.0000      0.0474
  359.0000      0.0454
  360.0000      0.0461
  361.0000      0.0454
  362.0000      0.0448
  363.0000      0.0455
  364.0000      0.0448
  365.0000      0.0437
  366.0000      0.0439
  367.0000      0.0439
  368.0000      0.0443
  369.0000      0.0427
  370.0000      0.0443
  371.0000      0.0423
  372.0000      0.0426
  373.0000      0.0425
  374.0000      0.0414
  375.0000      0.0416
  376.0000      0.0423
  377.0000      0.0418
  378.0000      0.0414
  379.0000      0.0413
  380.0000      0.0411
  381.0000      0.0405
  382.0000      0.0409
  383.0000      0.0401
  384.0000      0.0394
  385.0000      0.0405
  386.0000      0.0397
  387.0000      0.0397
  388.0000      0.0394
  389.0000      0.0388
  390.0000      0.0388
  391.0000      0.0388
  392.0000      0.0383
  393.0000      0.0378
  394.0000      0.0386
  395.0000      0.0377
  396.0000      0.0373
  397.0000      0.0378
  398.0000      0.0376
  399.0000      0.0373
  400.0000      0.0374
  401.0000      0.0374
  402.0000      0.0369
  403.0000      0.0366
  404.0000      0.0369
  405.0000      0.0362
  406.0000      0.0364
  407.0000      0.0361
  408.0000      0.0358
  409.0000      0.0362
  410.0000      0.0357
  411.0000      0.0359
  412.0000      0.0358
  413.0000      0.0362
  414.0000      0.0359
  415.0000      0.0355
  416.0000      0.0348
  417.0000      0.0348
  418.0000      0.0345
  419.0000      0.0344
  420.0000      0.0344
  421.0000      0.0341
  422.0000      0.0341
  423.0000      0.0339
  424.0000      0.0338
  425.0000      0.0336
  426.0000      0.0335
  427.0000      0.0335
  428.0000      0.0333
  429.0000      0.0333
  430.0000      0.0332
  431.0000      0.0331
  432.0000      0.0330
  433.0000      0.0331
  434.0000      0.0329
  435.0000      0.0329
  436.0000      0.0328
  437.0000      0.0326
  438.0000      0.0326
  439.0000      0.0324
  440.0000      0.0322
  441.0000      0.0321
  442.0000      0.0320
  443.0000      0.0318
  444.0000      0.0316
  445.0000      0.0314
  446.0000      0.0312
  447.0000      0.0310
  448.0000      0.0309
  449.0000      0.0306
  450.0000      0.0304
  451.0000      0.0303
  452.0000      0.0300
  453.0000      0.0298
  454.0000      0.0296
  455.0000      0.0294
  456.0000      0.0293
  457.0000      0.0291
  458.0000      0.0290
  459.0000      0.0289
  460.0000      0.0289
  461.0000      0.0287
  462.0000      0.0288
  463.0000      0.0288
  464.0000      0.0289
  465.0000      0.0290
  466.0000      0.0290
  467.0000      0.0290
  468.0000      0.0289
  469.0000      0.0288
  470.0000      0.0286
  471.0000      0.0285
  472.0000      0.0285
  473.0000      0.0284
  474.0000      0.0284
  475.0000      0.0283
  476.0000      0.0281
  477.0000      0.0280
  478.0000      0.0278
  479.0000      0.0277
  480.0000      0.0276
  481.0000      0.0275
  482.0000      0.0274
  483.0000      0.0275
  484.0000      0.0274
  485.0000      0.0273
  486.0000      0.0272
  487.0000      0.0271
  488.0000      0.0269
  489.0000      0.0268
  490.0000      0.0268
  491.0000      0.0267
  492.0000      0.0266
  493.0000      0.0266
  494.0000      0.0265
  495.0000      0.0264
  496.0000      0.0262
  497.0000      0.0260
  498.0000      0.0259
  499.0000      0.0258
  500.0000      0.0257
  501.0000      0.0256
  502.0000      0.0256
  503.0000      0.0254
  504.0000      0.0253
  505.0000      0.0251
  506.0000      0.0249
  507.0000      0.0249
  508.0000      0.0248
  509.0000      0.0247
  510.0000      0.0246
  511.0000      0.0245
  512.0000      0.0244
  513.0000      0.0243
  514.0000      0.0242
  515.0000      0.0240
  516.0000      0.0240
  517.0000      0.0239
  518.0000      0.0238
  519.0000      0.0238
  520.0000      0.0237
  521.0000      0.0236
  522.0000      0.0235
  523.0000      0.0235
  524.0000      0.0233
  525.0000      0.0233
  526.0000      0.0232
  527.0000      0.0231
  528.0000      0.0231
  529.0000      0.0230
  530.0000      0.0229
  531.0000      0.0229
  532.0000      0.0228
  533.0000      0.0227
  534.0000      0.0227
  535.0000      0.0227
  536.0000      0.0226
  537.0000      0.0226
  538.0000      0.0225
  539.0000      0.0225
  540.0000      0.0225
  541.0000      0.0225
  542.0000      0.0225
  543.0000      0.0224
  544.0000      0.0224
  545.0000      0.0224
  546.0000      0.0223
  547.0000      0.0223
  548.0000      0.0223
  549.0000      0.0223
  550.0000      0.0223
  551.0000      0.0222
  552.0000      0.0222
  553.0000      0.0222
  554.0000      0.0222
  555.0000      0.0222
  556.0000      0.0222
  557.0000      0.0225
  558.0000      0.0224
  559.0000      0.0223
  560.0000      0.0223
  561.0000      0.0222
  562.0000      0.0222
  563.0000      0.0222
  564.0000      0.0220
  565.0000      0.0220
  566.0000      0.0219
  567.0000      0.0219
  568.0000      0.0218
  569.0000      0.0218
  570.0000      0.0218
  571.0000      0.0217
  572.0000      0.0217
  573.0000      0.0217
  574.0000      0.0216
  575.0000      0.0216
  576.0000      0.0216
  577.0000      0.0216
  578.0000      0.0215
  579.0000      0.0214
  580.0000      0.0214
  581.0000      0.0213
  582.0000      0.0213
  583.0000      0.0212
  584.0000      0.0211
  585.0000      0.0210
  586.0000      0.0211
  587.0000      0.0210
  588.0000      0.0210
  589.0000      0.0210
  590.0000      0.0209
  591.0000      0.0209
  592.0000      0.0208
  593.0000      0.0208
  594.0000      0.0208
  595.0000      0.0207
  596.0000      0.0207
  597.0000      0.0206
  598.0000      0.0206
  599.0000      0.0205
  600.0000      0.0205
  601.0000      0.0205
  602.0000      0.0204
  603.0000      0.0203
  604.0000      0.0203
  605.0000      0.0202
  606.0000      0.0202
  607.0000      0.0202
  608.0000      0.0201
  609.0000      0.0201
  610.0000      0.0201
  611.0000      0.0201
  612.0000      0.0200
  613.0000      0.0201
  614.0000      0.0200
  615.0000      0.0201
  616.0000      0.0200
  617.0000      0.0200
  618.0000      0.0199
  619.0000      0.0200
  620.0000      0.0200
  621.0000      0.0199
  622.0000      0.0199
  623.0000      0.0199
  624.0000      0.0198
  625.0000      0.0198
  626.0000      0.0198
  627.0000      0.0198
  628.0000      0.0198
  629.0000      0.0197
  630.0000      0.0197
  631.0000      0.0198
  632.0000      0.0198
  633.0000      0.0197
  634.0000      0.0197
  635.0000      0.0197
  636.0000      0.0196
  637.0000      0.0196
  638.0000      0.0196
  639.0000      0.0195
  640.0000      0.0195
  641.0000      0.0195
  642.0000      0.0194
  643.0000      0.0194
  644.0000      0.0193
  645.0000      0.0193
  646.0000      0.0193
  647.0000      0.0192
  648.0000      0.0192
  649.0000      0.0192
  650.0000      0.0192
  651.0000      0.0191
  652.0000      0.0191
  653.0000      0.0190
  654.0000      0.0191
  655.0000      0.0191
  656.0000      0.0191
  657.0000      0.0190
  658.0000      0.0191
  659.0000      0.0191
  660.0000      0.0192
  661.0000      0.0192
  662.0000      0.0193
  663.0000      0.0194
  664.0000      0.0194
  665.0000      0.0195
  666.0000      0.0196
  667.0000      0.0196
  668.0000      0.0196
  669.0000      0.0197
  670.0000      0.0197
  671.0000      0.0198
  672.0000      0.0198
  673.0000      0.0199
  674.0000      0.0199
  675.0000      0.0200
  676.0000      0.0200
  677.0000      0.0200
  678.0000      0.0200
  679.0000      0.0200
  680.0000      0.0199
  681.0000      0.0199
  682.0000      0.0198
  683.0000      0.0197
  684.0000      0.0196
  685.0000      0.0195
  686.0000      0.0193
  687.0000      0.0191
  688.0000      0.0189
  689.0000      0.0188
  690.0000      0.0186
  691.0000      0.0185
  692.0000      0.0183
  693.0000      0.0181
  694.0000      0.0180
  695.0000      0.0178
  696.0000      0.0177
  697.0000      0.0176
  698.0000      0.0175
  699.0000      0.0173
  700.0000      0.0173
  701.0000      0.0172
  702.0000      0.0171
  703.0000      0.0170
  704.0000      0.0170
  705.0000      0.0169
  706.0000      0.0168
  707.0000      0.0167
  708.0000      0.0167
  709.0000      0.0166
  710.0000      0.0165
  711.0000      0.0165
  712.0000      0.0165
  713.0000      0.0165
  714.0000      0.0165
  715.0000      0.0165
  716.0000      0.0164
  717.0000      0.0164
  718.0000      0.0164
  719.0000      0.0164
  720.0000      0.0164
  721.0000      0.0164
  722.0000      0.0163
  723.0000      0.0162
  724.0000      0.0162
  725.0000      0.0163
  726.0000      0.0162
  727.0000      0.0163
  728.0000      0.0162
  729.0000      0.0162
  730.0000      0.0162
  731.0000      0.0162
  732.0000      0.0161
  733.0000      0.0162
  734.0000      0.0161
  735.0000      0.0161
  736.0000      0.0156
  737.0000      0.0156
  738.0000      0.0155
  739.0000      0.0154
  740.0000      0.0154
  741.0000      0.0153
  742.0000      0.0153
  743.0000      0.0152
  744.0000      0.0152
  745.0000      0.0152
  746.0000      0.0151
  747.0000      0.0151
  748.0000      0.0150
  749.0000      0.0150
  750.0000      0.0149
  751.0000      0.0149
  752.0000      0.0149
  753.0000      0.0149
  754.0000      0.0148
  755.0000      0.0147
  756.0000      0.0147
  757.0000      0.0146
  758.0000      0.0145
  759.0000      0.0145
  760.0000      0.0145
  761.0000      0.0145
  762.0000      0.0144
  763.0000      0.0144
  764.0000      0.0143
  765.0000      0.0143
  766.0000      0.0142
  767.0000      0.0142
  768.0000      0.0142
  769.0000      0.0142
  770.0000      0.0142
  771.0000      0.0141
  772.0000      0.0141
  773.0000      0.0141
  774.0000      0.0141
  775.0000      0.0140
  776.0000      0.0139
  777.0000      0.0139
  778.0000      0.0139
  779.0000      0.0139
  780.0000      0.0138
  781.0000      0.0138
  782.0000      0.0139
  783.0000      0.0139
  784.0000      0.0138
  785.0000      0.0138
  786.0000      0.0138
  787.0000      0.0137
  788.0000      0.0137
  789.0000      0.0137
  790.0000      0.0136
  791.0000      0.0136
  792.0000      0.0136
  793.0000      0.0136
  794.0000      0.0135
  795.0000      0.0135
  796.0000      0.0135
  797.0000      0.0135
  798.0000      0.0135
  799.0000      0.0134
  800.0000      0.0134
