Start Wavelength:    200.0000
End Wavelength:    800.0000
Read Mode:  ABS
Read Average:      0.1000
Nanometer Interval:      1.0000
Time:      0.0000

  200.0000      0.5619
  201.0000      0.5140
  202.0000      0.4886
  203.0000      0.4687
  204.0000      0.4451
  205.0000      0.4298
  206.0000      0.4139
  207.0000      0.4016
  208.0000      0.3891
  209.0000      0.3765
  210.0000      0.3667
  211.0000      0.3575
  212.0000      0.3479
  213.0000      0.3392
  214.0000      0.3316
  215.0000      0.3233
  216.0000      0.3164
  217.0000      0.3092
  218.0000      0.3028
  219.0000      0.2975
  220.0000      0.2921
  221.0000      0.2857
  222.0000      0.2812
  223.0000      0.2761
  224.0000      0.2707
  225.0000      0.2666
  226.0000      0.2618
  227.0000      0.2578
  228.0000      0.2539
  229.0000      0.2491
  230.0000      0.2456
  231.0000      0.2416
  232.0000      0.2377
  233.0000      0.2336
  234.0000      0.2302
  235.0000      0.2265
  236.0000      0.2235
  237.0000      0.2203
  238.0000      0.2166
  239.0000      0.2141
  240.0000      0.2120
  241.0000      0.2088
  242.0000      0.2069
  243.0000      0.2051
  244.0000      0.2028
  245.0000      0.2012
  246.0000      0.1998
  247.0000      0.1978
  248.0000      0.1966
  249.0000      0.1950
  250.0000      0.1937
  251.0000      0.1929
  252.0000      0.1912
  253.0000      0.1899
  254.0000      0.1888
  255.0000      0.1879
  256.0000      0.1865
  257.0000      0.1853
  258.0000      0.1844
  259.0000      0.1831
  260.0000      0.1820
  261.0000      0.1809
  262.0000      0.1796
  263.0000      0.1791
  264.0000      0.1769
  265.0000      0.1758
  266.0000      0.1748
  267.0000      0.1726
  268.0000      0.1719
  269.0000      0.1701
  270.0000      0.1686
  271.0000      0.1669
  272.0000      0.1654
  273.0000      0.1637
  274.0000      0.1621
  275.0000      0.1611
  276.0000      0.1588
  277.0000      0.1572
  278.0000      0.1552
  279.0000      0.1534
  280.0000      0.1521
  281.0000      0.1499
  282.0000      0.1483
  283.0000      0.1466
  284.0000      0.1442
  285.0000      0.1435
  286.0000      0.1414
  287.0000      0.1395
  288.0000      0.1374
  289.0000      0.1356
  290.0000      0.1338
  291.0000      0.1318
  292.0000      0.1301
  293.0000      0.1285
  294.0000      0.1267
  295.0000      0.1254
  296.0000      0.1237
  297.0000      0.1225
  298.0000      0.1209
  299.0000      0.1197
  300.0000      0.1189
  301.0000      0.1168
  302.0000      0.1161
  303.0000      0.1151
  304.0000      0.1133
  305.0000      0.1131
  306.0000      0.1124
  307.0000      0.1111
  308.0000      0.1105
  309.0000      0.1096
  310.0000      0.1084
  311.0000      0.1077
  312.0000      0.1072
  313.0000      0.1059
  314.0000      0.1056
  315.0000      0.1047
  316.0000      0.1035
  317.0000      0.1031
  318.0000      0.1022
  319.0000      0.1013
  320.0000      0.1004
  321.0000      0.0995
  322.0000      0.1001
  323.0000      0.0994
  324.0000      0.0983
  325.0000      0.0979
  326.0000      0.0972
  327.0000      0.0966
  328.0000      0.0963
  329.0000      0.0958
  330.0000      0.0947
  331.0000      0.0947
  332.0000      0.0940
  333.0000      0.0934
  334.0000      0.0930
  335.0000      0.0925
  336.0000      0.0917
  337.0000      0.0920
  338.0000      0.0906
  339.0000      0.0902
  340.0000      0.0897
  341.0000      0.0887
  342.0000      0.0890
  343.0000      0.0882
  344.0000      0.0879
  345.0000      0.0872
  346.0000      0.0866
  347.0000      0.0861
  348.0000      0.0856
  349.0000      0.0853
  350.0000      0.0846
  351.0000      0.0845
  352.0000      0.0838
  353.0000      0.0834
  354.0000      0.0835
  355.0000      0.0827
  356.0000      0.0824
  357.0000      0.0825
  358.0000      0.0832
  359.0000      0.0812
  360.0000      0.0812
  361.0000      0.0798
  362.0000      0.0811
  363.0000      0.0822
  364.0000      0.0797
  365.0000      0.0797
  366.0000      0.0798
  367.0000      0.0781
  368.0000      0.0798
  369.0000      0.0779
  370.0000      0.0784
  371.0000      0.0780
  372.0000      0.0780
  373.0000      0.0781
  374.0000      0.0779
  375.0000      0.0782
  376.0000      0.0778
  377.0000      0.0786
  378.0000      0.0768
  379.0000      0.0768
  380.0000      0.0773
  381.0000      0.0762
  382.0000      0.0766
  383.0000      0.0765
  384.0000      0.0746
  385.0000      0.0757
  386.0000      0.0752
  387.0000      0.0745
  388.0000      0.0747
  389.0000      0.0741
  390.0000      0.0732
  391.0000      0.0739
  392.0000      0.0735
  393.0000      0.0735
  394.0000      0.0735
  395.0000      0.0729
  396.0000      0.0730
  397.0000      0.0729
  398.0000      0.0721
  399.0000      0.0725
  400.0000      0.0726
  401.0000      0.0718
  402.0000      0.0721
  403.0000      0.0718
  404.0000      0.0713
  405.0000      0.0716
  406.0000      0.0713
  407.0000      0.0715
  408.0000      0.0710
  409.0000      0.0709
  410.0000      0.0705
  411.0000      0.0711
  412.0000      0.0704
  413.0000      0.0709
  414.0000      0.0709
  415.0000      0.0703
  416.0000      0.0718
  417.0000      0.0716
  418.0000      0.0714
  419.0000      0.0712
  420.0000      0.0711
  421.0000      0.0708
  422.0000      0.0707
  423.0000      0.0704
  424.0000      0.0702
  425.0000      0.0700
  426.0000      0.0697
  427.0000      0.0696
  428.0000      0.0694
  429.0000      0.0693
  430.0000      0.0692
  431.0000      0.0691
  432.0000      0.0689
  433.0000      0.0688
  434.0000      0.0687
  435.0000      0.0686
  436.0000      0.0685
  437.0000      0.0683
  438.0000      0.0681
  439.0000      0.0678
  440.0000      0.0675
  441.0000      0.0674
  442.0000      0.0671
  443.0000      0.0670
  444.0000      0.0667
  445.0000      0.0664
  446.0000      0.0661
  447.0000      0.0658
  448.0000      0.0656
  449.0000      0.0652
  450.0000      0.0650
  451.0000      0.0646
  452.0000      0.0643
  453.0000      0.0641
  454.0000      0.0636
  455.0000      0.0635
  456.0000      0.0632
  457.0000      0.0628
  458.0000      0.0627
  459.0000      0.0626
  460.0000      0.0624
  461.0000      0.0622
  462.0000      0.0620
  463.0000      0.0620
  464.0000      0.0620
  465.0000      0.0619
  466.0000      0.0618
  467.0000      0.0617
  468.0000      0.0615
  469.0000      0.0613
  470.0000      0.0611
  471.0000      0.0609
  472.0000      0.0606
  473.0000      0.0604
  474.0000      0.0602
  475.0000      0.0599
  476.0000      0.0597
  477.0000      0.0595
  478.0000      0.0592
  479.0000      0.0590
  480.0000      0.0588
  481.0000      0.0586
  482.0000      0.0585
  483.0000      0.0584
  484.0000      0.0582
  485.0000      0.0581
  486.0000      0.0580
  487.0000      0.0578
  488.0000      0.0576
  489.0000      0.0574
  490.0000      0.0572
  491.0000      0.0569
  492.0000      0.0567
  493.0000      0.0566
  494.0000      0.0564
  495.0000      0.0563
  496.0000      0.0562
  497.0000      0.0561
  498.0000      0.0560
  499.0000      0.0559
  500.0000      0.0559
  501.0000      0.0559
  502.0000      0.0558
  503.0000      0.0557
  504.0000      0.0555
  505.0000      0.0554
  506.0000      0.0553
  507.0000      0.0552
  508.0000      0.0550
  509.0000      0.0549
  510.0000      0.0548
  511.0000      0.0547
  512.0000      0.0545
  513.0000      0.0544
  514.0000      0.0543
  515.0000      0.0541
  516.0000      0.0540
  517.0000      0.0539
  518.0000      0.0538
  519.0000      0.0537
  520.0000      0.0535
  521.0000      0.0533
  522.0000      0.0531
  523.0000      0.0530
  524.0000      0.0528
  525.0000      0.0526
  526.0000      0.0524
  527.0000      0.0523
  528.0000      0.0521
  529.0000      0.0520
  530.0000      0.0518
  531.0000      0.0516
  532.0000      0.0515
  533.0000      0.0513
  534.0000      0.0512
  535.0000      0.0511
  536.0000      0.0509
  537.0000      0.0508
  538.0000      0.0506
  539.0000      0.0504
  540.0000      0.0504
  541.0000      0.0503
  542.0000      0.0502
  543.0000      0.0501
  544.0000      0.0500
  545.0000      0.0498
  546.0000      0.0498
  547.0000      0.0497
  548.0000      0.0495
  549.0000      0.0494
  550.0000      0.0493
  551.0000      0.0492
  552.0000      0.0491
  553.0000      0.0491
  554.0000      0.0490
  555.0000      0.0489
  556.0000      0.0490
  557.0000      0.0490
  558.0000      0.0490
  559.0000      0.0489
  560.0000      0.0488
  561.0000      0.0486
  562.0000      0.0484
  563.0000      0.0483
  564.0000      0.0483
  565.0000      0.0482
  566.0000      0.0481
  567.0000      0.0480
  568.0000      0.0480
  569.0000      0.0480
  570.0000      0.0480
  571.0000      0.0479
  572.0000      0.0478
  573.0000      0.0476
  574.0000      0.0474
  575.0000      0.0473
  576.0000      0.0472
  577.0000      0.0471
  578.0000      0.0470
  579.0000      0.0470
  580.0000      0.0470
  581.0000      0.0470
  582.0000      0.0470
  583.0000      0.0469
  584.0000      0.0469
  585.0000      0.0468
  586.0000      0.0467
  587.0000      0.0467
  588.0000      0.0465
  589.0000      0.0464
  590.0000      0.0463
  591.0000      0.0461
  592.0000      0.0460
  593.0000      0.0458
  594.0000      0.0457
  595.0000      0.0456
  596.0000      0.0456
  597.0000      0.0455
  598.0000      0.0454
  599.0000      0.0453
  600.0000      0.0453
  601.0000      0.0452
  602.0000      0.0452
  603.0000      0.0451
  604.0000      0.0451
  605.0000      0.0450
  606.0000      0.0450
  607.0000      0.0449
  608.0000      0.0449
  609.0000      0.0449
  610.0000      0.0448
  611.0000      0.0448
  612.0000      0.0447
  613.0000      0.0447
  614.0000      0.0446
  615.0000      0.0446
  616.0000      0.0445
  617.0000      0.0445
  618.0000      0.0445
  619.0000      0.0444
  620.0000      0.0444
  621.0000      0.0444
  622.0000      0.0444
  623.0000      0.0444
  624.0000      0.0444
  625.0000      0.0444
  626.0000      0.0444
  627.0000      0.0444
  628.0000      0.0445
  629.0000      0.0445
  630.0000      0.0445
  631.0000      0.0445
  632.0000      0.0445
  633.0000      0.0445
  634.0000      0.0444
  635.0000      0.0444
  636.0000      0.0443
  637.0000      0.0443
  638.0000      0.0442
  639.0000      0.0441
  640.0000      0.0440
  641.0000      0.0439
  642.0000      0.0438
  643.0000      0.0438
  644.0000      0.0438
  645.0000      0.0437
  646.0000      0.0436
  647.0000      0.0436
  648.0000      0.0435
  649.0000      0.0434
  650.0000      0.0434
  651.0000      0.0433
  652.0000      0.0431
  653.0000      0.0430
  654.0000      0.0430
  655.0000      0.0430
  656.0000      0.0430
  657.0000      0.0429
  658.0000      0.0429
  659.0000      0.0429
  660.0000      0.0430
  661.0000      0.0431
  662.0000      0.0432
  663.0000      0.0433
  664.0000      0.0433
  665.0000      0.0435
  666.0000      0.0436
  667.0000      0.0438
  668.0000      0.0438
  669.0000      0.0439
  670.0000      0.0440
  671.0000      0.0442
  672.0000      0.0442
  673.0000      0.0442
  674.0000      0.0443
  675.0000      0.0443
  676.0000      0.0443
  677.0000      0.0443
  678.0000      0.0443
  679.0000      0.0443
  680.0000      0.0443
  681.0000      0.0443
  682.0000      0.0441
  683.0000      0.0438
  684.0000      0.0436
  685.0000      0.0433
  686.0000      0.0431
  687.0000      0.0429
  688.0000      0.0426
  689.0000      0.0421
  690.0000      0.0416
  691.0000      0.0412
  692.0000      0.0409
  693.0000      0.0406
  694.0000      0.0403
  695.0000      0.0401
  696.0000      0.0399
  697.0000      0.0398
  698.0000      0.0395
  699.0000      0.0393
  700.0000      0.0392
  701.0000      0.0391
  702.0000      0.0390
  703.0000      0.0388
  704.0000      0.0388
  705.0000      0.0386
  706.0000      0.0385
  707.0000      0.0384
  708.0000      0.0383
  709.0000      0.0382
  710.0000      0.0381
  711.0000      0.0380
  712.0000      0.0379
  713.0000      0.0378
  714.0000      0.0377
  715.0000      0.0376
  716.0000      0.0375
  717.0000      0.0374
  718.0000      0.0374
  719.0000      0.0373
  720.0000      0.0373
  721.0000      0.0373
  722.0000      0.0372
  723.0000      0.0372
  724.0000      0.0371
  725.0000      0.0371
  726.0000      0.0370
  727.0000      0.0371
  728.0000      0.0370
  729.0000      0.0370
  730.0000      0.0369
  731.0000      0.0369
  732.0000      0.0369
  733.0000      0.0369
  734.0000      0.0368
  735.0000      0.0368
  736.0000      0.0366
  737.0000      0.0366
  738.0000      0.0365
  739.0000      0.0365
  740.0000      0.0365
  741.0000      0.0364
  742.0000      0.0363
  743.0000      0.0362
  744.0000      0.0361
  745.0000      0.0361
  746.0000      0.0361
  747.0000      0.0361
  748.0000      0.0361
  749.0000      0.0362
  750.0000      0.0361
  751.0000      0.0362
  752.0000      0.0361
  753.0000      0.0361
  754.0000      0.0360
  755.0000      0.0360
  756.0000      0.0359
  757.0000      0.0358
  758.0000      0.0358
  759.0000      0.0358
  760.0000      0.0359
  761.0000      0.0360
  762.0000      0.0359
  763.0000      0.0358
  764.0000      0.0357
  765.0000      0.0357
  766.0000      0.0356
  767.0000      0.0357
  768.0000      0.0357
  769.0000      0.0356
  770.0000      0.0356
  771.0000      0.0356
  772.0000      0.0355
  773.0000      0.0355
  774.0000      0.0356
  775.0000      0.0355
  776.0000      0.0355
  777.0000      0.0355
  778.0000      0.0354
  779.0000      0.0354
  780.0000      0.0353
  781.0000      0.0352
  782.0000      0.0351
  783.0000      0.0349
  784.0000      0.0348
  785.0000      0.0348
  786.0000      0.0347
  787.0000      0.0346
  788.0000      0.0345
  789.0000      0.0344
  790.0000      0.0343
  791.0000      0.0342
  792.0000      0.0342
  793.0000      0.0340
  794.0000      0.0340
  795.0000      0.0339
  796.0000      0.0339
  797.0000      0.0338
  798.0000      0.0337
  799.0000      0.0337
  800.0000      0.0336
