Start Wavelength:    200.0000
End Wavelength:    800.0000
Read Mode:  ABS
Read Average:      0.1000
Nanometer Interval:      1.0000
Time:      0.0000

  200.0000      0.5638
  201.0000      0.5166
  202.0000      0.4921
  203.0000      0.4729
  204.0000      0.4510
  205.0000      0.4344
  206.0000      0.4201
  207.0000      0.4062
  208.0000      0.3941
  209.0000      0.3833
  210.0000      0.3722
  211.0000      0.3630
  212.0000      0.3546
  213.0000      0.3444
  214.0000      0.3362
  215.0000      0.3297
  216.0000      0.3215
  217.0000      0.3147
  218.0000      0.3092
  219.0000      0.3030
  220.0000      0.2978
  221.0000      0.2924
  222.0000      0.2877
  223.0000      0.2834
  224.0000      0.2787
  225.0000      0.2740
  226.0000      0.2698
  227.0000      0.2664
  228.0000      0.2616
  229.0000      0.2576
  230.0000      0.2543
  231.0000      0.2499
  232.0000      0.2468
  233.0000      0.2425
  234.0000      0.2393
  235.0000      0.2362
  236.0000      0.2333
  237.0000      0.2300
  238.0000      0.2271
  239.0000      0.2246
  240.0000      0.2220
  241.0000      0.2196
  242.0000      0.2176
  243.0000      0.2156
  244.0000      0.2138
  245.0000      0.2121
  246.0000      0.2106
  247.0000      0.2090
  248.0000      0.2070
  249.0000      0.2059
  250.0000      0.2048
  251.0000      0.2041
  252.0000      0.2025
  253.0000      0.2011
  254.0000      0.1998
  255.0000      0.1992
  256.0000      0.1977
  257.0000      0.1961
  258.0000      0.1953
  259.0000      0.1941
  260.0000      0.1928
  261.0000      0.1919
  262.0000      0.1907
  263.0000      0.1894
  264.0000      0.1885
  265.0000      0.1874
  266.0000      0.1856
  267.0000      0.1839
  268.0000      0.1833
  269.0000      0.1812
  270.0000      0.1801
  271.0000      0.1777
  272.0000      0.1761
  273.0000      0.1750
  274.0000      0.1728
  275.0000      0.1715
  276.0000      0.1698
  277.0000      0.1685
  278.0000      0.1657
  279.0000      0.1646
  280.0000      0.1628
  281.0000      0.1608
  282.0000      0.1596
  283.0000      0.1577
  284.0000      0.1553
  285.0000      0.1543
  286.0000      0.1518
  287.0000      0.1499
  288.0000      0.1480
  289.0000      0.1462
  290.0000      0.1445
  291.0000      0.1427
  292.0000      0.1408
  293.0000      0.1390
  294.0000      0.1378
  295.0000      0.1363
  296.0000      0.1346
  297.0000      0.1334
  298.0000      0.1313
  299.0000      0.1302
  300.0000      0.1289
  301.0000      0.1273
  302.0000      0.1262
  303.0000      0.1257
  304.0000      0.1242
  305.0000      0.1236
  306.0000      0.1223
  307.0000      0.1215
  308.0000      0.1205
  309.0000      0.1195
  310.0000      0.1190
  311.0000      0.1175
  312.0000      0.1168
  313.0000      0.1158
  314.0000      0.1152
  315.0000      0.1147
  316.0000      0.1133
  317.0000      0.1133
  318.0000      0.1125
  319.0000      0.1120
  320.0000      0.1112
  321.0000      0.1111
  322.0000      0.1102
  323.0000      0.1098
  324.0000      0.1094
  325.0000      0.1078
  326.0000      0.1067
  327.0000      0.1068
  328.0000      0.1055
  329.0000      0.1057
  330.0000      0.1047
  331.0000      0.1035
  332.0000      0.1034
  333.0000      0.1027
  334.0000      0.1019
  335.0000      0.1016
  336.0000      0.1007
  337.0000      0.1004
  338.0000      0.1000
  339.0000      0.0994
  340.0000      0.0986
  341.0000      0.0984
  342.0000      0.0982
  343.0000      0.0971
  344.0000      0.0972
  345.0000      0.0964
  346.0000      0.0962
  347.0000      0.0961
  348.0000      0.0952
  349.0000      0.0951
  350.0000      0.0946
  351.0000      0.0944
  352.0000      0.0942
  353.0000      0.0935
  354.0000      0.0934
  355.0000      0.0929
  356.0000      0.0925
  357.0000      0.0925
  358.0000      0.0953
  359.0000      0.0918
  360.0000      0.0923
  361.0000      0.0918
  362.0000      0.0914
  363.0000      0.0930
  364.0000      0.0920
  365.0000      0.0906
  366.0000      0.0917
  367.0000      0.0910
  368.0000      0.0910
  369.0000      0.0902
  370.0000      0.0909
  371.0000      0.0885
  372.0000      0.0905
  373.0000      0.0893
  374.0000      0.0886
  375.0000      0.0898
  376.0000      0.0889
  377.0000      0.0885
  378.0000      0.0881
  379.0000      0.0868
  380.0000      0.0872
  381.0000      0.0879
  382.0000      0.0866
  383.0000      0.0864
  384.0000      0.0865
  385.0000      0.0855
  386.0000      0.0851
  387.0000      0.0861
  388.0000      0.0842
  389.0000      0.0841
  390.0000      0.0850
  391.0000      0.0836
  392.0000      0.0838
  393.0000      0.0841
  394.0000      0.0829
  395.0000      0.0827
  396.0000      0.0827
  397.0000      0.0823
  398.0000      0.0824
  399.0000      0.0820
  400.0000      0.0816
  401.0000      0.0819
  402.0000      0.0815
  403.0000      0.0809
  404.0000      0.0815
  405.0000      0.0806
  406.0000      0.0808
  407.0000      0.0808
  408.0000      0.0797
  409.0000      0.0801
  410.0000      0.0798
  411.0000      0.0801
  412.0000      0.0794
  413.0000      0.0798
  414.0000      0.0795
  415.0000      0.0791
  416.0000      0.0790
  417.0000      0.0788
  418.0000      0.0786
  419.0000      0.0782
  420.0000      0.0781
  421.0000      0.0778
  422.0000      0.0777
  423.0000      0.0775
  424.0000      0.0774
  425.0000      0.0772
  426.0000      0.0769
  427.0000      0.0769
  428.0000      0.0767
  429.0000      0.0767
  430.0000      0.0766
  431.0000      0.0765
  432.0000      0.0765
  433.0000      0.0765
  434.0000      0.0764
  435.0000      0.0766
  436.0000      0.0766
  437.0000      0.0764
  438.0000      0.0763
  439.0000      0.0759
  440.0000      0.0757
  441.0000      0.0755
  442.0000      0.0752
  443.0000      0.0749
  444.0000      0.0746
  445.0000      0.0742
  446.0000      0.0739
  447.0000      0.0736
  448.0000      0.0733
  449.0000      0.0729
  450.0000      0.0726
  451.0000      0.0721
  452.0000      0.0717
  453.0000      0.0714
  454.0000      0.0710
  455.0000      0.0707
  456.0000      0.0704
  457.0000      0.0699
  458.0000      0.0698
  459.0000      0.0697
  460.0000      0.0694
  461.0000      0.0693
  462.0000      0.0693
  463.0000      0.0693
  464.0000      0.0694
  465.0000      0.0694
  466.0000      0.0694
  467.0000      0.0694
  468.0000      0.0693
  469.0000      0.0692
  470.0000      0.0690
  471.0000      0.0688
  472.0000      0.0686
  473.0000      0.0683
  474.0000      0.0682
  475.0000      0.0679
  476.0000      0.0677
  477.0000      0.0675
  478.0000      0.0672
  479.0000      0.0670
  480.0000      0.0668
  481.0000      0.0666
  482.0000      0.0663
  483.0000      0.0662
  484.0000      0.0659
  485.0000      0.0658
  486.0000      0.0656
  487.0000      0.0655
  488.0000      0.0655
  489.0000      0.0654
  490.0000      0.0652
  491.0000      0.0651
  492.0000      0.0650
  493.0000      0.0649
  494.0000      0.0649
  495.0000      0.0648
  496.0000      0.0647
  497.0000      0.0646
  498.0000      0.0645
  499.0000      0.0643
  500.0000      0.0642
  501.0000      0.0639
  502.0000      0.0637
  503.0000      0.0635
  504.0000      0.0633
  505.0000      0.0632
  506.0000      0.0631
  507.0000      0.0630
  508.0000      0.0628
  509.0000      0.0627
  510.0000      0.0625
  511.0000      0.0623
  512.0000      0.0621
  513.0000      0.0619
  514.0000      0.0617
  515.0000      0.0614
  516.0000      0.0613
  517.0000      0.0610
  518.0000      0.0608
  519.0000      0.0605
  520.0000      0.0603
  521.0000      0.0601
  522.0000      0.0597
  523.0000      0.0596
  524.0000      0.0593
  525.0000      0.0590
  526.0000      0.0587
  527.0000      0.0584
  528.0000      0.0582
  529.0000      0.0580
  530.0000      0.0578
  531.0000      0.0576
  532.0000      0.0574
  533.0000      0.0572
  534.0000      0.0570
  535.0000      0.0568
  536.0000      0.0567
  537.0000      0.0565
  538.0000      0.0563
  539.0000      0.0561
  540.0000      0.0559
  541.0000      0.0557
  542.0000      0.0554
  543.0000      0.0552
  544.0000      0.0552
  545.0000      0.0550
  546.0000      0.0549
  547.0000      0.0547
  548.0000      0.0546
  549.0000      0.0545
  550.0000      0.0545
  551.0000      0.0545
  552.0000      0.0545
  553.0000      0.0545
  554.0000      0.0544
  555.0000      0.0543
  556.0000      0.0543
  557.0000      0.0550
  558.0000      0.0548
  559.0000      0.0547
  560.0000      0.0545
  561.0000      0.0544
  562.0000      0.0542
  563.0000      0.0541
  564.0000      0.0540
  565.0000      0.0539
  566.0000      0.0538
  567.0000      0.0536
  568.0000      0.0535
  569.0000      0.0534
  570.0000      0.0533
  571.0000      0.0531
  572.0000      0.0530
  573.0000      0.0529
  574.0000      0.0528
  575.0000      0.0526
  576.0000      0.0523
  577.0000      0.0520
  578.0000      0.0518
  579.0000      0.0517
  580.0000      0.0516
  581.0000      0.0516
  582.0000      0.0516
  583.0000      0.0517
  584.0000      0.0517
  585.0000      0.0517
  586.0000      0.0516
  587.0000      0.0516
  588.0000      0.0515
  589.0000      0.0516
  590.0000      0.0516
  591.0000      0.0515
  592.0000      0.0514
  593.0000      0.0514
  594.0000      0.0512
  595.0000      0.0511
  596.0000      0.0511
  597.0000      0.0509
  598.0000      0.0508
  599.0000      0.0506
  600.0000      0.0505
  601.0000      0.0504
  602.0000      0.0502
  603.0000      0.0502
  604.0000      0.0501
  605.0000      0.0501
  606.0000      0.0502
  607.0000      0.0502
  608.0000      0.0501
  609.0000      0.0500
  610.0000      0.0500
  611.0000      0.0500
  612.0000      0.0499
  613.0000      0.0499
  614.0000      0.0499
  615.0000      0.0500
  616.0000      0.0500
  617.0000      0.0501
  618.0000      0.0500
  619.0000      0.0500
  620.0000      0.0500
  621.0000      0.0499
  622.0000      0.0499
  623.0000      0.0498
  624.0000      0.0497
  625.0000      0.0496
  626.0000      0.0495
  627.0000      0.0493
  628.0000      0.0492
  629.0000      0.0491
  630.0000      0.0490
  631.0000      0.0489
  632.0000      0.0488
  633.0000      0.0488
  634.0000      0.0487
  635.0000      0.0486
  636.0000      0.0484
  637.0000      0.0482
  638.0000      0.0481
  639.0000      0.0480
  640.0000      0.0477
  641.0000      0.0475
  642.0000      0.0474
  643.0000      0.0472
  644.0000      0.0470
  645.0000      0.0468
  646.0000      0.0467
  647.0000      0.0466
  648.0000      0.0466
  649.0000      0.0466
  650.0000      0.0467
  651.0000      0.0468
  652.0000      0.0468
  653.0000      0.0468
  654.0000      0.0468
  655.0000      0.0467
  656.0000      0.0467
  657.0000      0.0467
  658.0000      0.0468
  659.0000      0.0468
  660.0000      0.0468
  661.0000      0.0468
  662.0000      0.0468
  663.0000      0.0469
  664.0000      0.0469
  665.0000      0.0469
  666.0000      0.0470
  667.0000      0.0470
  668.0000      0.0470
  669.0000      0.0471
  670.0000      0.0471
  671.0000      0.0471
  672.0000      0.0471
  673.0000      0.0471
  674.0000      0.0471
  675.0000      0.0471
  676.0000      0.0471
  677.0000      0.0471
  678.0000      0.0471
  679.0000      0.0471
  680.0000      0.0471
  681.0000      0.0470
  682.0000      0.0470
  683.0000      0.0468
  684.0000      0.0468
  685.0000      0.0466
  686.0000      0.0463
  687.0000      0.0461
  688.0000      0.0459
  689.0000      0.0457
  690.0000      0.0454
  691.0000      0.0451
  692.0000      0.0448
  693.0000      0.0446
  694.0000      0.0444
  695.0000      0.0441
  696.0000      0.0439
  697.0000      0.0438
  698.0000      0.0436
  699.0000      0.0434
  700.0000      0.0433
  701.0000      0.0432
  702.0000      0.0430
  703.0000      0.0429
  704.0000      0.0428
  705.0000      0.0427
  706.0000      0.0425
  707.0000      0.0423
  708.0000      0.0422
  709.0000      0.0421
  710.0000      0.0420
  711.0000      0.0418
  712.0000      0.0417
  713.0000      0.0416
  714.0000      0.0415
  715.0000      0.0414
  716.0000      0.0412
  717.0000      0.0412
  718.0000      0.0411
  719.0000      0.0411
  720.0000      0.0412
  721.0000      0.0413
  722.0000      0.0413
  723.0000      0.0413
  724.0000      0.0413
  725.0000      0.0413
  726.0000      0.0413
  727.0000      0.0414
  728.0000      0.0413
  729.0000      0.0413
  730.0000      0.0413
  731.0000      0.0414
  732.0000      0.0413
  733.0000      0.0413
  734.0000      0.0413
  735.0000      0.0413
  736.0000      0.0408
  737.0000      0.0409
  738.0000      0.0409
  739.0000      0.0408
  740.0000      0.0408
  741.0000      0.0407
  742.0000      0.0406
  743.0000      0.0405
  744.0000      0.0404
  745.0000      0.0403
  746.0000      0.0403
  747.0000      0.0403
  748.0000      0.0402
  749.0000      0.0401
  750.0000      0.0400
  751.0000      0.0400
  752.0000      0.0399
  753.0000      0.0399
  754.0000      0.0397
  755.0000      0.0397
  756.0000      0.0396
  757.0000      0.0396
  758.0000      0.0395
  759.0000      0.0394
  760.0000      0.0394
  761.0000      0.0394
  762.0000      0.0393
  763.0000      0.0393
  764.0000      0.0392
  765.0000      0.0391
  766.0000      0.0390
  767.0000      0.0390
  768.0000      0.0390
  769.0000      0.0390
  770.0000      0.0389
  771.0000      0.0389
  772.0000      0.0389
  773.0000      0.0389
  774.0000      0.0389
  775.0000      0.0389
  776.0000      0.0388
  777.0000      0.0388
  778.0000      0.0387
  779.0000      0.0387
  780.0000      0.0387
  781.0000      0.0386
  782.0000      0.0385
  783.0000      0.0385
  784.0000      0.0385
  785.0000      0.0385
  786.0000      0.0384
  787.0000      0.0383
  788.0000      0.0382
  789.0000      0.0381
  790.0000      0.0381
  791.0000      0.0379
  792.0000      0.0378
  793.0000      0.0377
  794.0000      0.0376
  795.0000      0.0375
  796.0000      0.0374
  797.0000      0.0373
  798.0000      0.0373
  799.0000      0.0372
  800.0000      0.0372
