Start Wavelength:    200.0000
End Wavelength:    800.0000
Read Mode:  ABS
Read Average:      0.1000
Nanometer Interval:      1.0000
Time:      0.0000

  200.0000      0.0035
  201.0000      0.0046
  202.0000      0.0057
  203.0000      0.0062
  204.0000      0.0058
  205.0000      0.0061
  206.0000      0.0052
  207.0000      0.0051
  208.0000      0.0049
  209.0000      0.0041
  210.0000      0.0041
  211.0000      0.0032
  212.0000      0.0030
  213.0000      0.0022
  214.0000      0.0014
  215.0000      0.0013
  216.0000      0.0003
  217.0000     -0.0001
  218.0000      0.0000
  219.0000     -0.0004
  220.0000     -0.0004
  221.0000     -0.0005
  222.0000     -0.0006
  223.0000     -0.0004
  224.0000     -0.0005
  225.0000     -0.0005
  226.0000     -0.0008
  227.0000     -0.0006
  228.0000     -0.0004
  229.0000     -0.0006
  230.0000      0.0000
  231.0000     -0.0001
  232.0000      0.0001
  233.0000      0.0006
  234.0000      0.0007
  235.0000      0.0008
  236.0000      0.0012
  237.0000      0.0013
  238.0000      0.0011
  239.0000      0.0012
  240.0000      0.0014
  241.0000      0.0009
  242.0000      0.0012
  243.0000      0.0013
  244.0000      0.0010
  245.0000      0.0013
  246.0000      0.0012
  247.0000      0.0009
  248.0000      0.0009
  249.0000      0.0010
  250.0000      0.0009
  251.0000      0.0008
  252.0000      0.0011
  253.0000      0.0007
  254.0000      0.0003
  255.0000      0.0007
  256.0000      0.0003
  257.0000      0.0001
  258.0000      0.0003
  259.0000      0.0002
  260.0000     -0.0000
  261.0000      0.0003
  262.0000      0.0001
  263.0000      0.0003
  264.0000      0.0004
  265.0000      0.0002
  266.0000      0.0003
  267.0000      0.0002
  268.0000      0.0006
  269.0000      0.0002
  270.0000      0.0004
  271.0000      0.0003
  272.0000      0.0003
  273.0000      0.0005
  274.0000      0.0002
  275.0000      0.0010
  276.0000      0.0006
  277.0000      0.0003
  278.0000      0.0005
  279.0000      0.0005
  280.0000      0.0005
  281.0000      0.0010
  282.0000      0.0008
  283.0000      0.0007
  284.0000      0.0008
  285.0000      0.0007
  286.0000      0.0004
  287.0000      0.0011
  288.0000      0.0007
  289.0000      0.0003
  290.0000      0.0011
  291.0000      0.0009
  292.0000      0.0007
  293.0000      0.0008
  294.0000      0.0011
  295.0000      0.0009
  296.0000      0.0011
  297.0000      0.0010
  298.0000      0.0010
  299.0000      0.0010
  300.0000      0.0014
  301.0000      0.0009
  302.0000      0.0011
  303.0000      0.0014
  304.0000      0.0007
  305.0000      0.0010
  306.0000      0.0013
  307.0000      0.0012
  308.0000      0.0016
  309.0000      0.0013
  310.0000      0.0017
  311.0000      0.0008
  312.0000      0.0015
  313.0000      0.0014
  314.0000      0.0010
  315.0000      0.0013
  316.0000      0.0014
  317.0000      0.0010
  318.0000      0.0012
  319.0000      0.0015
  320.0000      0.0007
  321.0000      0.0008
  322.0000      0.0013
  323.0000      0.0013
  324.0000      0.0013
  325.0000      0.0010
  326.0000      0.0007
  327.0000      0.0012
  328.0000      0.0010
  329.0000      0.0012
  330.0000      0.0009
  331.0000      0.0012
  332.0000      0.0009
  333.0000      0.0007
  334.0000      0.0008
  335.0000      0.0008
  336.0000      0.0008
  337.0000      0.0014
  338.0000      0.0005
  339.0000      0.0009
  340.0000      0.0009
  341.0000      0.0006
  342.0000      0.0011
  343.0000      0.0007
  344.0000      0.0009
  345.0000      0.0007
  346.0000      0.0008
  347.0000      0.0006
  348.0000      0.0005
  349.0000      0.0007
  350.0000      0.0003
  351.0000      0.0006
  352.0000      0.0008
  353.0000      0.0008
  354.0000      0.0006
  355.0000      0.0004
  356.0000      0.0005
  357.0000      0.0008
  358.0000      0.0014
  359.0000     -0.0000
  360.0000      0.0002
  361.0000      0.0012
  362.0000      0.0006
  363.0000      0.0011
  364.0000     -0.0000
  365.0000      0.0004
  366.0000      0.0007
  367.0000     -0.0005
  368.0000      0.0010
  369.0000     -0.0006
  370.0000      0.0011
  371.0000      0.0001
  372.0000      0.0013
  373.0000     -0.0001
  374.0000     -0.0001
  375.0000      0.0007
  376.0000      0.0003
  377.0000      0.0010
  378.0000      0.0004
  379.0000      0.0008
  380.0000      0.0006
  381.0000     -0.0000
  382.0000      0.0002
  383.0000     -0.0002
  384.0000     -0.0002
  385.0000      0.0004
  386.0000     -0.0006
  387.0000      0.0004
  388.0000      0.0004
  389.0000     -0.0004
  390.0000      0.0001
  391.0000     -0.0003
  392.0000     -0.0006
  393.0000     -0.0002
  394.0000     -0.0003
  395.0000     -0.0007
  396.0000     -0.0004
  397.0000     -0.0007
  398.0000     -0.0008
  399.0000     -0.0003
  400.0000     -0.0000
  401.0000     -0.0006
  402.0000     -0.0005
  403.0000     -0.0004
  404.0000     -0.0006
  405.0000     -0.0008
  406.0000     -0.0005
  407.0000     -0.0007
  408.0000     -0.0011
  409.0000     -0.0005
  410.0000     -0.0009
  411.0000     -0.0010
  412.0000     -0.0008
  413.0000     -0.0004
  414.0000     -0.0007
  415.0000     -0.0008
  416.0000     -0.0005
  417.0000     -0.0007
  418.0000     -0.0006
  419.0000     -0.0006
  420.0000     -0.0006
  421.0000     -0.0007
  422.0000     -0.0005
  423.0000     -0.0007
  424.0000     -0.0006
  425.0000     -0.0007
  426.0000     -0.0007
  427.0000     -0.0007
  428.0000     -0.0008
  429.0000     -0.0007
  430.0000     -0.0007
  431.0000     -0.0007
  432.0000     -0.0008
  433.0000     -0.0007
  434.0000     -0.0008
  435.0000     -0.0008
  436.0000     -0.0008
  437.0000     -0.0008
  438.0000     -0.0007
  439.0000     -0.0009
  440.0000     -0.0008
  441.0000     -0.0008
  442.0000     -0.0008
  443.0000     -0.0008
  444.0000     -0.0008
  445.0000     -0.0009
  446.0000     -0.0009
  447.0000     -0.0009
  448.0000     -0.0009
  449.0000     -0.0010
  450.0000     -0.0010
  451.0000     -0.0010
  452.0000     -0.0010
  453.0000     -0.0010
  454.0000     -0.0011
  455.0000     -0.0011
  456.0000     -0.0011
  457.0000     -0.0012
  458.0000     -0.0011
  459.0000     -0.0011
  460.0000     -0.0010
  461.0000     -0.0011
  462.0000     -0.0011
  463.0000     -0.0010
  464.0000     -0.0009
  465.0000     -0.0009
  466.0000     -0.0008
  467.0000     -0.0008
  468.0000     -0.0008
  469.0000     -0.0007
  470.0000     -0.0008
  471.0000     -0.0008
  472.0000     -0.0008
  473.0000     -0.0009
  474.0000     -0.0008
  475.0000     -0.0009
  476.0000     -0.0009
  477.0000     -0.0009
  478.0000     -0.0009
  479.0000     -0.0010
  480.0000     -0.0010
  481.0000     -0.0010
  482.0000     -0.0010
  483.0000     -0.0010
  484.0000     -0.0010
  485.0000     -0.0011
  486.0000     -0.0011
  487.0000     -0.0011
  488.0000     -0.0011
  489.0000     -0.0011
  490.0000     -0.0010
  491.0000     -0.0011
  492.0000     -0.0011
  493.0000     -0.0011
  494.0000     -0.0011
  495.0000     -0.0011
  496.0000     -0.0011
  497.0000     -0.0011
  498.0000     -0.0011
  499.0000     -0.0012
  500.0000     -0.0011
  501.0000     -0.0011
  502.0000     -0.0011
  503.0000     -0.0011
  504.0000     -0.0011
  505.0000     -0.0011
  506.0000     -0.0011
  507.0000     -0.0011
  508.0000     -0.0012
  509.0000     -0.0012
  510.0000     -0.0012
  511.0000     -0.0011
  512.0000     -0.0012
  513.0000     -0.0011
  514.0000     -0.0011
  515.0000     -0.0012
  516.0000     -0.0012
  517.0000     -0.0012
  518.0000     -0.0012
  519.0000     -0.0012
  520.0000     -0.0012
  521.0000     -0.0012
  522.0000     -0.0012
  523.0000     -0.0012
  524.0000     -0.0012
  525.0000     -0.0012
  526.0000     -0.0012
  527.0000     -0.0012
  528.0000     -0.0012
  529.0000     -0.0012
  530.0000     -0.0012
  531.0000     -0.0012
  532.0000     -0.0012
  533.0000     -0.0012
  534.0000     -0.0012
  535.0000     -0.0012
  536.0000     -0.0012
  537.0000     -0.0012
  538.0000     -0.0012
  539.0000     -0.0012
  540.0000     -0.0012
  541.0000     -0.0012
  542.0000     -0.0012
  543.0000     -0.0012
  544.0000     -0.0012
  545.0000     -0.0012
  546.0000     -0.0013
  547.0000     -0.0013
  548.0000     -0.0012
  549.0000     -0.0012
  550.0000     -0.0012
  551.0000     -0.0012
  552.0000     -0.0013
  553.0000     -0.0012
  554.0000     -0.0012
  555.0000     -0.0012
  556.0000     -0.0012
  557.0000     -0.0011
  558.0000     -0.0011
  559.0000     -0.0011
  560.0000     -0.0011
  561.0000     -0.0012
  562.0000     -0.0012
  563.0000     -0.0012
  564.0000     -0.0012
  565.0000     -0.0012
  566.0000     -0.0013
  567.0000     -0.0013
  568.0000     -0.0013
  569.0000     -0.0013
  570.0000     -0.0012
  571.0000     -0.0013
  572.0000     -0.0012
  573.0000     -0.0013
  574.0000     -0.0013
  575.0000     -0.0013
  576.0000     -0.0013
  577.0000     -0.0013
  578.0000     -0.0014
  579.0000     -0.0014
  580.0000     -0.0014
  581.0000     -0.0014
  582.0000     -0.0014
  583.0000     -0.0014
  584.0000     -0.0014
  585.0000     -0.0014
  586.0000     -0.0014
  587.0000     -0.0014
  588.0000     -0.0015
  589.0000     -0.0015
  590.0000     -0.0015
  591.0000     -0.0015
  592.0000     -0.0015
  593.0000     -0.0014
  594.0000     -0.0014
  595.0000     -0.0014
  596.0000     -0.0014
  597.0000     -0.0014
  598.0000     -0.0015
  599.0000     -0.0015
  600.0000     -0.0015
  601.0000     -0.0015
  602.0000     -0.0014
  603.0000     -0.0015
  604.0000     -0.0014
  605.0000     -0.0014
  606.0000     -0.0014
  607.0000     -0.0014
  608.0000     -0.0014
  609.0000     -0.0014
  610.0000     -0.0014
  611.0000     -0.0014
  612.0000     -0.0015
  613.0000     -0.0014
  614.0000     -0.0014
  615.0000     -0.0015
  616.0000     -0.0015
  617.0000     -0.0015
  618.0000     -0.0015
  619.0000     -0.0015
  620.0000     -0.0015
  621.0000     -0.0015
  622.0000     -0.0015
  623.0000     -0.0015
  624.0000     -0.0014
  625.0000     -0.0014
  626.0000     -0.0014
  627.0000     -0.0014
  628.0000     -0.0014
  629.0000     -0.0014
  630.0000     -0.0014
  631.0000     -0.0014
  632.0000     -0.0014
  633.0000     -0.0014
  634.0000     -0.0014
  635.0000     -0.0014
  636.0000     -0.0013
  637.0000     -0.0014
  638.0000     -0.0014
  639.0000     -0.0014
  640.0000     -0.0014
  641.0000     -0.0014
  642.0000     -0.0013
  643.0000     -0.0013
  644.0000     -0.0013
  645.0000     -0.0014
  646.0000     -0.0013
  647.0000     -0.0013
  648.0000     -0.0013
  649.0000     -0.0013
  650.0000     -0.0013
  651.0000     -0.0013
  652.0000     -0.0013
  653.0000     -0.0013
  654.0000     -0.0013
  655.0000     -0.0013
  656.0000     -0.0013
  657.0000     -0.0014
  658.0000     -0.0013
  659.0000     -0.0013
  660.0000     -0.0013
  661.0000     -0.0013
  662.0000     -0.0014
  663.0000     -0.0013
  664.0000     -0.0013
  665.0000     -0.0013
  666.0000     -0.0013
  667.0000     -0.0013
  668.0000     -0.0013
  669.0000     -0.0013
  670.0000     -0.0013
  671.0000     -0.0013
  672.0000     -0.0013
  673.0000     -0.0013
  674.0000     -0.0013
  675.0000     -0.0013
  676.0000     -0.0013
  677.0000     -0.0012
  678.0000     -0.0012
  679.0000     -0.0012
  680.0000     -0.0013
  681.0000     -0.0012
  682.0000     -0.0012
  683.0000     -0.0013
  684.0000     -0.0013
  685.0000     -0.0013
  686.0000     -0.0013
  687.0000     -0.0013
  688.0000     -0.0013
  689.0000     -0.0013
  690.0000     -0.0013
  691.0000     -0.0013
  692.0000     -0.0013
  693.0000     -0.0014
  694.0000     -0.0013
  695.0000     -0.0013
  696.0000     -0.0013
  697.0000     -0.0013
  698.0000     -0.0013
  699.0000     -0.0013
  700.0000     -0.0013
  701.0000     -0.0013
  702.0000     -0.0013
  703.0000     -0.0013
  704.0000     -0.0013
  705.0000     -0.0013
  706.0000     -0.0013
  707.0000     -0.0013
  708.0000     -0.0013
  709.0000     -0.0013
  710.0000     -0.0012
  711.0000     -0.0012
  712.0000     -0.0012
  713.0000     -0.0012
  714.0000     -0.0012
  715.0000     -0.0012
  716.0000     -0.0012
  717.0000     -0.0012
  718.0000     -0.0012
  719.0000     -0.0012
  720.0000     -0.0012
  721.0000     -0.0011
  722.0000     -0.0011
  723.0000     -0.0011
  724.0000     -0.0011
  725.0000     -0.0012
  726.0000     -0.0012
  727.0000     -0.0011
  728.0000     -0.0012
  729.0000     -0.0011
  730.0000     -0.0012
  731.0000     -0.0011
  732.0000     -0.0011
  733.0000     -0.0011
  734.0000     -0.0010
  735.0000     -0.0010
  736.0000     -0.0010
  737.0000     -0.0010
  738.0000     -0.0010
  739.0000     -0.0010
  740.0000     -0.0010
  741.0000     -0.0010
  742.0000     -0.0011
  743.0000     -0.0011
  744.0000     -0.0011
  745.0000     -0.0011
  746.0000     -0.0011
  747.0000     -0.0010
  748.0000     -0.0011
  749.0000     -0.0011
  750.0000     -0.0011
  751.0000     -0.0011
  752.0000     -0.0011
  753.0000     -0.0010
  754.0000     -0.0011
  755.0000     -0.0011
  756.0000     -0.0011
  757.0000     -0.0011
  758.0000     -0.0011
  759.0000     -0.0011
  760.0000     -0.0011
  761.0000     -0.0010
  762.0000     -0.0011
  763.0000     -0.0011
  764.0000     -0.0011
  765.0000     -0.0011
  766.0000     -0.0012
  767.0000     -0.0011
  768.0000     -0.0011
  769.0000     -0.0011
  770.0000     -0.0011
  771.0000     -0.0011
  772.0000     -0.0011
  773.0000     -0.0011
  774.0000     -0.0011
  775.0000     -0.0011
  776.0000     -0.0012
  777.0000     -0.0011
  778.0000     -0.0011
  779.0000     -0.0011
  780.0000     -0.0011
  781.0000     -0.0011
  782.0000     -0.0011
  783.0000     -0.0011
  784.0000     -0.0011
  785.0000     -0.0010
  786.0000     -0.0010
  787.0000     -0.0011
  788.0000     -0.0010
  789.0000     -0.0010
  790.0000     -0.0011
  791.0000     -0.0011
  792.0000     -0.0011
  793.0000     -0.0011
  794.0000     -0.0011
  795.0000     -0.0011
  796.0000     -0.0011
  797.0000     -0.0010
  798.0000     -0.0010
  799.0000     -0.0011
  800.0000     -0.0011
