Start Wavelength:    200.0000
End Wavelength:    800.0000
Read Mode:  ABS
Read Average:      0.1000
Nanometer Interval:      1.0000
Time:      0.0000

  200.0000      0.6853
  201.0000      0.6324
  202.0000      0.6072
  203.0000      0.5840
  204.0000      0.5635
  205.0000      0.5437
  206.0000      0.5305
  207.0000      0.5169
  208.0000      0.5045
  209.0000      0.4892
  210.0000      0.4748
  211.0000      0.4629
  212.0000      0.4514
  213.0000      0.4382
  214.0000      0.4257
  215.0000      0.4146
  216.0000      0.4036
  217.0000      0.3920
  218.0000      0.3823
  219.0000      0.3713
  220.0000      0.3619
  221.0000      0.3524
  222.0000      0.3444
  223.0000      0.3354
  224.0000      0.3272
  225.0000      0.3193
  226.0000      0.3122
  227.0000      0.3061
  228.0000      0.2992
  229.0000      0.2918
  230.0000      0.2861
  231.0000      0.2809
  232.0000      0.2760
  233.0000      0.2700
  234.0000      0.2649
  235.0000      0.2605
  236.0000      0.2567
  237.0000      0.2519
  238.0000      0.2484
  239.0000      0.2444
  240.0000      0.2409
  241.0000      0.2375
  242.0000      0.2350
  243.0000      0.2315
  244.0000      0.2293
  245.0000      0.2268
  246.0000      0.2247
  247.0000      0.2224
  248.0000      0.2203
  249.0000      0.2181
  250.0000      0.2168
  251.0000      0.2154
  252.0000      0.2131
  253.0000      0.2119
  254.0000      0.2102
  255.0000      0.2089
  256.0000      0.2073
  257.0000      0.2063
  258.0000      0.2047
  259.0000      0.2034
  260.0000      0.2015
  261.0000      0.2000
  262.0000      0.1988
  263.0000      0.1975
  264.0000      0.1950
  265.0000      0.1933
  266.0000      0.1919
  267.0000      0.1899
  268.0000      0.1885
  269.0000      0.1861
  270.0000      0.1838
  271.0000      0.1819
  272.0000      0.1803
  273.0000      0.1780
  274.0000      0.1763
  275.0000      0.1732
  276.0000      0.1718
  277.0000      0.1697
  278.0000      0.1678
  279.0000      0.1649
  280.0000      0.1624
  281.0000      0.1598
  282.0000      0.1580
  283.0000      0.1557
  284.0000      0.1528
  285.0000      0.1504
  286.0000      0.1484
  287.0000      0.1464
  288.0000      0.1441
  289.0000      0.1414
  290.0000      0.1391
  291.0000      0.1363
  292.0000      0.1343
  293.0000      0.1330
  294.0000      0.1299
  295.0000      0.1280
  296.0000      0.1254
  297.0000      0.1235
  298.0000      0.1215
  299.0000      0.1199
  300.0000      0.1180
  301.0000      0.1156
  302.0000      0.1149
  303.0000      0.1142
  304.0000      0.1124
  305.0000      0.1107
  306.0000      0.1095
  307.0000      0.1076
  308.0000      0.1064
  309.0000      0.1050
  310.0000      0.1041
  311.0000      0.1023
  312.0000      0.1007
  313.0000      0.1007
  314.0000      0.0993
  315.0000      0.0983
  316.0000      0.0966
  317.0000      0.0953
  318.0000      0.0940
  319.0000      0.0935
  320.0000      0.0925
  321.0000      0.0912
  322.0000      0.0886
  323.0000      0.0870
  324.0000      0.0864
  325.0000      0.0857
  326.0000      0.0840
  327.0000      0.0828
  328.0000      0.0822
  329.0000      0.0807
  330.0000      0.0802
  331.0000      0.0794
  332.0000      0.0783
  333.0000      0.0770
  334.0000      0.0768
  335.0000      0.0754
  336.0000      0.0742
  337.0000      0.0736
  338.0000      0.0725
  339.0000      0.0720
  340.0000      0.0713
  341.0000      0.0705
  342.0000      0.0693
  343.0000      0.0682
  344.0000      0.0679
  345.0000      0.0672
  346.0000      0.0656
  347.0000      0.0654
  348.0000      0.0643
  349.0000      0.0641
  350.0000      0.0631
  351.0000      0.0625
  352.0000      0.0616
  353.0000      0.0613
  354.0000      0.0606
  355.0000      0.0601
  356.0000      0.0598
  357.0000      0.0572
  358.0000      0.0558
  359.0000      0.0556
  360.0000      0.0572
  361.0000      0.0557
  362.0000      0.0528
  363.0000      0.0530
  364.0000      0.0530
  365.0000      0.0530
  366.0000      0.0519
  367.0000      0.0510
  368.0000      0.0497
  369.0000      0.0494
  370.0000      0.0494
  371.0000      0.0496
  372.0000      0.0473
  373.0000      0.0463
  374.0000      0.0462
  375.0000      0.0467
  376.0000      0.0448
  377.0000      0.0449
  378.0000      0.0449
  379.0000      0.0437
  380.0000      0.0429
  381.0000      0.0422
  382.0000      0.0420
  383.0000      0.0426
  384.0000      0.0413
  385.0000      0.0413
  386.0000      0.0400
  387.0000      0.0388
  388.0000      0.0396
  389.0000      0.0398
  390.0000      0.0387
  391.0000      0.0381
  392.0000      0.0381
  393.0000      0.0371
  394.0000      0.0365
  395.0000      0.0366
  396.0000      0.0361
  397.0000      0.0365
  398.0000      0.0351
  399.0000      0.0350
  400.0000      0.0336
  401.0000      0.0342
  402.0000      0.0336
  403.0000      0.0334
  404.0000      0.0326
  405.0000      0.0322
  406.0000      0.0323
  407.0000      0.0323
  408.0000      0.0321
  409.0000      0.0315
  410.0000      0.0311
  411.0000      0.0307
  412.0000      0.0304
  413.0000      0.0304
  414.0000      0.0300
  415.0000      0.0301
  416.0000      0.0294
  417.0000      0.0291
  418.0000      0.0287
  419.0000      0.0286
  420.0000      0.0284
  421.0000      0.0281
  422.0000      0.0280
  423.0000      0.0278
  424.0000      0.0275
  425.0000      0.0273
  426.0000      0.0269
  427.0000      0.0267
  428.0000      0.0266
  429.0000      0.0264
  430.0000      0.0261
  431.0000      0.0259
  432.0000      0.0257
  433.0000      0.0256
  434.0000      0.0254
  435.0000      0.0251
  436.0000      0.0249
  437.0000      0.0249
  438.0000      0.0246
  439.0000      0.0243
  440.0000      0.0241
  441.0000      0.0239
  442.0000      0.0238
  443.0000      0.0235
  444.0000      0.0231
  445.0000      0.0229
  446.0000      0.0228
  447.0000      0.0226
  448.0000      0.0224
  449.0000      0.0222
  450.0000      0.0219
  451.0000      0.0218
  452.0000      0.0215
  453.0000      0.0214
  454.0000      0.0212
  455.0000      0.0210
  456.0000      0.0208
  457.0000      0.0206
  458.0000      0.0204
  459.0000      0.0201
  460.0000      0.0200
  461.0000      0.0200
  462.0000      0.0200
  463.0000      0.0200
  464.0000      0.0199
  465.0000      0.0199
  466.0000      0.0198
  467.0000      0.0197
  468.0000      0.0196
  469.0000      0.0195
  470.0000      0.0193
  471.0000      0.0193
  472.0000      0.0191
  473.0000      0.0189
  474.0000      0.0186
  475.0000      0.0185
  476.0000      0.0183
  477.0000      0.0182
  478.0000      0.0180
  479.0000      0.0179
  480.0000      0.0177
  481.0000      0.0176
  482.0000      0.0174
  483.0000      0.0173
  484.0000      0.0171
  485.0000      0.0171
  486.0000      0.0170
  487.0000      0.0169
  488.0000      0.0167
  489.0000      0.0166
  490.0000      0.0165
  491.0000      0.0165
  492.0000      0.0164
  493.0000      0.0163
  494.0000      0.0163
  495.0000      0.0163
  496.0000      0.0163
  497.0000      0.0163
  498.0000      0.0163
  499.0000      0.0163
  500.0000      0.0163
  501.0000      0.0163
  502.0000      0.0162
  503.0000      0.0162
  504.0000      0.0161
  505.0000      0.0161
  506.0000      0.0160
  507.0000      0.0159
  508.0000      0.0159
  509.0000      0.0158
  510.0000      0.0158
  511.0000      0.0157
  512.0000      0.0157
  513.0000      0.0156
  514.0000      0.0156
  515.0000      0.0156
  516.0000      0.0156
  517.0000      0.0156
  518.0000      0.0156
  519.0000      0.0157
  520.0000      0.0157
  521.0000      0.0156
  522.0000      0.0156
  523.0000      0.0156
  524.0000      0.0155
  525.0000      0.0154
  526.0000      0.0154
  527.0000      0.0153
  528.0000      0.0153
  529.0000      0.0152
  530.0000      0.0151
  531.0000      0.0151
  532.0000      0.0150
  533.0000      0.0150
  534.0000      0.0149
  535.0000      0.0149
  536.0000      0.0149
  537.0000      0.0148
  538.0000      0.0148
  539.0000      0.0147
  540.0000      0.0146
  541.0000      0.0145
  542.0000      0.0145
  543.0000      0.0144
  544.0000      0.0143
  545.0000      0.0143
  546.0000      0.0143
  547.0000      0.0142
  548.0000      0.0141
  549.0000      0.0140
  550.0000      0.0138
  551.0000      0.0137
  552.0000      0.0135
  553.0000      0.0134
  554.0000      0.0132
  555.0000      0.0130
  556.0000      0.0130
  557.0000      0.0124
  558.0000      0.0123
  559.0000      0.0121
  560.0000      0.0120
  561.0000      0.0119
  562.0000      0.0119
  563.0000      0.0118
  564.0000      0.0118
  565.0000      0.0117
  566.0000      0.0117
  567.0000      0.0117
  568.0000      0.0117
  569.0000      0.0117
  570.0000      0.0117
  571.0000      0.0117
  572.0000      0.0117
  573.0000      0.0116
  574.0000      0.0116
  575.0000      0.0116
  576.0000      0.0116
  577.0000      0.0115
  578.0000      0.0114
  579.0000      0.0114
  580.0000      0.0114
  581.0000      0.0113
  582.0000      0.0113
  583.0000      0.0113
  584.0000      0.0113
  585.0000      0.0112
  586.0000      0.0111
  587.0000      0.0111
  588.0000      0.0111
  589.0000      0.0111
  590.0000      0.0111
  591.0000      0.0112
  592.0000      0.0112
  593.0000      0.0111
  594.0000      0.0111
  595.0000      0.0110
  596.0000      0.0109
  597.0000      0.0109
  598.0000      0.0108
  599.0000      0.0107
  600.0000      0.0107
  601.0000      0.0107
  602.0000      0.0107
  603.0000      0.0107
  604.0000      0.0107
  605.0000      0.0107
  606.0000      0.0107
  607.0000      0.0108
  608.0000      0.0107
  609.0000      0.0108
  610.0000      0.0108
  611.0000      0.0108
  612.0000      0.0108
  613.0000      0.0109
  614.0000      0.0109
  615.0000      0.0110
  616.0000      0.0110
  617.0000      0.0110
  618.0000      0.0109
  619.0000      0.0109
  620.0000      0.0109
  621.0000      0.0109
  622.0000      0.0109
  623.0000      0.0108
  624.0000      0.0107
  625.0000      0.0107
  626.0000      0.0107
  627.0000      0.0107
  628.0000      0.0107
  629.0000      0.0107
  630.0000      0.0107
  631.0000      0.0107
  632.0000      0.0106
  633.0000      0.0106
  634.0000      0.0107
  635.0000      0.0108
  636.0000      0.0108
  637.0000      0.0109
  638.0000      0.0109
  639.0000      0.0109
  640.0000      0.0109
  641.0000      0.0109
  642.0000      0.0110
  643.0000      0.0111
  644.0000      0.0111
  645.0000      0.0112
  646.0000      0.0112
  647.0000      0.0112
  648.0000      0.0113
  649.0000      0.0113
  650.0000      0.0113
  651.0000      0.0113
  652.0000      0.0114
  653.0000      0.0115
  654.0000      0.0115
  655.0000      0.0115
  656.0000      0.0115
  657.0000      0.0116
  658.0000      0.0116
  659.0000      0.0117
  660.0000      0.0117
  661.0000      0.0116
  662.0000      0.0116
  663.0000      0.0116
  664.0000      0.0116
  665.0000      0.0117
  666.0000      0.0117
  667.0000      0.0117
  668.0000      0.0117
  669.0000      0.0116
  670.0000      0.0116
  671.0000      0.0116
  672.0000      0.0115
  673.0000      0.0115
  674.0000      0.0114
  675.0000      0.0114
  676.0000      0.0114
  677.0000      0.0114
  678.0000      0.0113
  679.0000      0.0113
  680.0000      0.0114
  681.0000      0.0114
  682.0000      0.0113
  683.0000      0.0112
  684.0000      0.0112
  685.0000      0.0111
  686.0000      0.0111
  687.0000      0.0110
  688.0000      0.0109
  689.0000      0.0108
  690.0000      0.0107
  691.0000      0.0106
  692.0000      0.0106
  693.0000      0.0105
  694.0000      0.0105
  695.0000      0.0104
  696.0000      0.0102
  697.0000      0.0101
  698.0000      0.0101
  699.0000      0.0100
  700.0000      0.0099
  701.0000      0.0099
  702.0000      0.0099
  703.0000      0.0098
  704.0000      0.0097
  705.0000      0.0097
  706.0000      0.0096
  707.0000      0.0096
  708.0000      0.0095
  709.0000      0.0095
  710.0000      0.0094
  711.0000      0.0094
  712.0000      0.0094
  713.0000      0.0094
  714.0000      0.0093
  715.0000      0.0093
  716.0000      0.0093
  717.0000      0.0092
  718.0000      0.0091
  719.0000      0.0091
  720.0000      0.0090
  721.0000      0.0091
  722.0000      0.0091
  723.0000      0.0090
  724.0000      0.0090
  725.0000      0.0090
  726.0000      0.0089
  727.0000      0.0089
  728.0000      0.0088
  729.0000      0.0088
  730.0000      0.0088
  731.0000      0.0087
  732.0000      0.0086
  733.0000      0.0086
  734.0000      0.0085
  735.0000      0.0086
  736.0000      0.0078
  737.0000      0.0078
  738.0000      0.0078
  739.0000      0.0077
  740.0000      0.0077
  741.0000      0.0077
  742.0000      0.0077
  743.0000      0.0077
  744.0000      0.0076
  745.0000      0.0076
  746.0000      0.0076
  747.0000      0.0076
  748.0000      0.0076
  749.0000      0.0077
  750.0000      0.0076
  751.0000      0.0076
  752.0000      0.0077
  753.0000      0.0077
  754.0000      0.0077
  755.0000      0.0077
  756.0000      0.0077
  757.0000      0.0077
  758.0000      0.0077
  759.0000      0.0077
  760.0000      0.0077
  761.0000      0.0077
  762.0000      0.0077
  763.0000      0.0076
  764.0000      0.0077
  765.0000      0.0077
  766.0000      0.0076
  767.0000      0.0077
  768.0000      0.0076
  769.0000      0.0076
  770.0000      0.0076
  771.0000      0.0076
  772.0000      0.0076
  773.0000      0.0076
  774.0000      0.0075
  775.0000      0.0075
  776.0000      0.0075
  777.0000      0.0076
  778.0000      0.0075
  779.0000      0.0075
  780.0000      0.0076
  781.0000      0.0075
  782.0000      0.0075
  783.0000      0.0075
  784.0000      0.0075
  785.0000      0.0075
  786.0000      0.0076
  787.0000      0.0076
  788.0000      0.0076
  789.0000      0.0075
  790.0000      0.0076
  791.0000      0.0075
  792.0000      0.0075
  793.0000      0.0075
  794.0000      0.0075
  795.0000      0.0075
  796.0000      0.0076
  797.0000      0.0076
  798.0000      0.0076
  799.0000      0.0076
  800.0000      0.0076
