Start Wavelength:    200.0000
End Wavelength:    800.0000
Read Mode:  ABS
Read Average:      0.1000
Nanometer Interval:      1.0000
Time:      0.0000

  200.0000      1.2726
  201.0000      1.2418
  202.0000      1.2097
  203.0000      1.1810
  204.0000      1.1605
  205.0000      1.1332
  206.0000      1.1111
  207.0000      1.0761
  208.0000      1.0492
  209.0000      1.0171
  210.0000      0.9880
  211.0000      0.9499
  212.0000      0.9134
  213.0000      0.8763
  214.0000      0.8409
  215.0000      0.8033
  216.0000      0.7662
  217.0000      0.7242
  218.0000      0.6914
  219.0000      0.6579
  220.0000      0.6250
  221.0000      0.5898
  222.0000      0.5610
  223.0000      0.5351
  224.0000      0.5089
  225.0000      0.4831
  226.0000      0.4619
  227.0000      0.4430
  228.0000      0.4258
  229.0000      0.4084
  230.0000      0.3938
  231.0000      0.3800
  232.0000      0.3690
  233.0000      0.3575
  234.0000      0.3477
  235.0000      0.3388
  236.0000      0.3313
  237.0000      0.3233
  238.0000      0.3177
  239.0000      0.3115
  240.0000      0.3061
  241.0000      0.3009
  242.0000      0.2963
  243.0000      0.2928
  244.0000      0.2885
  245.0000      0.2848
  246.0000      0.2822
  247.0000      0.2793
  248.0000      0.2762
  249.0000      0.2733
  250.0000      0.2713
  251.0000      0.2685
  252.0000      0.2661
  253.0000      0.2643
  254.0000      0.2616
  255.0000      0.2601
  256.0000      0.2585
  257.0000      0.2561
  258.0000      0.2543
  259.0000      0.2526
  260.0000      0.2507
  261.0000      0.2488
  262.0000      0.2473
  263.0000      0.2451
  264.0000      0.2431
  265.0000      0.2414
  266.0000      0.2386
  267.0000      0.2367
  268.0000      0.2348
  269.0000      0.2331
  270.0000      0.2309
  271.0000      0.2284
  272.0000      0.2265
  273.0000      0.2247
  274.0000      0.2225
  275.0000      0.2202
  276.0000      0.2177
  277.0000      0.2149
  278.0000      0.2136
  279.0000      0.2119
  280.0000      0.2087
  281.0000      0.2057
  282.0000      0.2040
  283.0000      0.2022
  284.0000      0.1992
  285.0000      0.1963
  286.0000      0.1934
  287.0000      0.1904
  288.0000      0.1882
  289.0000      0.1872
  290.0000      0.1831
  291.0000      0.1798
  292.0000      0.1780
  293.0000      0.1765
  294.0000      0.1737
  295.0000      0.1709
  296.0000      0.1687
  297.0000      0.1660
  298.0000      0.1644
  299.0000      0.1627
  300.0000      0.1599
  301.0000      0.1573
  302.0000      0.1560
  303.0000      0.1541
  304.0000      0.1514
  305.0000      0.1501
  306.0000      0.1489
  307.0000      0.1464
  308.0000      0.1443
  309.0000      0.1432
  310.0000      0.1418
  311.0000      0.1395
  312.0000      0.1381
  313.0000      0.1360
  314.0000      0.1343
  315.0000      0.1334
  316.0000      0.1321
  317.0000      0.1302
  318.0000      0.1281
  319.0000      0.1269
  320.0000      0.1258
  321.0000      0.1258
  322.0000      0.1219
  323.0000      0.1207
  324.0000      0.1197
  325.0000      0.1176
  326.0000      0.1156
  327.0000      0.1146
  328.0000      0.1141
  329.0000      0.1126
  330.0000      0.1115
  331.0000      0.1090
  332.0000      0.1079
  333.0000      0.1075
  334.0000      0.1064
  335.0000      0.1046
  336.0000      0.1029
  337.0000      0.1019
  338.0000      0.1006
  339.0000      0.0998
  340.0000      0.0989
  341.0000      0.0976
  342.0000      0.0962
  343.0000      0.0954
  344.0000      0.0943
  345.0000      0.0934
  346.0000      0.0916
  347.0000      0.0914
  348.0000      0.0898
  349.0000      0.0886
  350.0000      0.0877
  351.0000      0.0871
  352.0000      0.0860
  353.0000      0.0848
  354.0000      0.0838
  355.0000      0.0829
  356.0000      0.0828
  357.0000      0.0812
  358.0000      0.0824
  359.0000      0.0808
  360.0000      0.0798
  361.0000      0.0792
  362.0000      0.0770
  363.0000      0.0778
  364.0000      0.0757
  365.0000      0.0750
  366.0000      0.0741
  367.0000      0.0741
  368.0000      0.0730
  369.0000      0.0712
  370.0000      0.0724
  371.0000      0.0713
  372.0000      0.0691
  373.0000      0.0687
  374.0000      0.0686
  375.0000      0.0682
  376.0000      0.0657
  377.0000      0.0664
  378.0000      0.0656
  379.0000      0.0644
  380.0000      0.0636
  381.0000      0.0633
  382.0000      0.0622
  383.0000      0.0623
  384.0000      0.0619
  385.0000      0.0613
  386.0000      0.0591
  387.0000      0.0592
  388.0000      0.0590
  389.0000      0.0584
  390.0000      0.0573
  391.0000      0.0572
  392.0000      0.0573
  393.0000      0.0558
  394.0000      0.0549
  395.0000      0.0547
  396.0000      0.0544
  397.0000      0.0539
  398.0000      0.0534
  399.0000      0.0528
  400.0000      0.0515
  401.0000      0.0516
  402.0000      0.0510
  403.0000      0.0509
  404.0000      0.0495
  405.0000      0.0497
  406.0000      0.0495
  407.0000      0.0490
  408.0000      0.0478
  409.0000      0.0481
  410.0000      0.0478
  411.0000      0.0474
  412.0000      0.0464
  413.0000      0.0462
  414.0000      0.0459
  415.0000      0.0458
  416.0000      0.0455
  417.0000      0.0452
  418.0000      0.0447
  419.0000      0.0443
  420.0000      0.0440
  421.0000      0.0436
  422.0000      0.0432
  423.0000      0.0427
  424.0000      0.0422
  425.0000      0.0419
  426.0000      0.0415
  427.0000      0.0410
  428.0000      0.0407
  429.0000      0.0403
  430.0000      0.0400
  431.0000      0.0396
  432.0000      0.0392
  433.0000      0.0390
  434.0000      0.0387
  435.0000      0.0383
  436.0000      0.0378
  437.0000      0.0376
  438.0000      0.0371
  439.0000      0.0368
  440.0000      0.0365
  441.0000      0.0362
  442.0000      0.0360
  443.0000      0.0356
  444.0000      0.0352
  445.0000      0.0348
  446.0000      0.0346
  447.0000      0.0343
  448.0000      0.0341
  449.0000      0.0337
  450.0000      0.0335
  451.0000      0.0332
  452.0000      0.0330
  453.0000      0.0327
  454.0000      0.0324
  455.0000      0.0323
  456.0000      0.0320
  457.0000      0.0318
  458.0000      0.0314
  459.0000      0.0312
  460.0000      0.0310
  461.0000      0.0310
  462.0000      0.0309
  463.0000      0.0308
  464.0000      0.0306
  465.0000      0.0306
  466.0000      0.0304
  467.0000      0.0303
  468.0000      0.0301
  469.0000      0.0300
  470.0000      0.0298
  471.0000      0.0296
  472.0000      0.0294
  473.0000      0.0291
  474.0000      0.0288
  475.0000      0.0286
  476.0000      0.0284
  477.0000      0.0283
  478.0000      0.0281
  479.0000      0.0279
  480.0000      0.0277
  481.0000      0.0275
  482.0000      0.0273
  483.0000      0.0272
  484.0000      0.0270
  485.0000      0.0268
  486.0000      0.0267
  487.0000      0.0265
  488.0000      0.0263
  489.0000      0.0261
  490.0000      0.0260
  491.0000      0.0259
  492.0000      0.0257
  493.0000      0.0256
  494.0000      0.0254
  495.0000      0.0253
  496.0000      0.0252
  497.0000      0.0250
  498.0000      0.0248
  499.0000      0.0247
  500.0000      0.0245
  501.0000      0.0244
  502.0000      0.0242
  503.0000      0.0241
  504.0000      0.0239
  505.0000      0.0238
  506.0000      0.0237
  507.0000      0.0236
  508.0000      0.0235
  509.0000      0.0233
  510.0000      0.0232
  511.0000      0.0231
  512.0000      0.0229
  513.0000      0.0227
  514.0000      0.0226
  515.0000      0.0225
  516.0000      0.0224
  517.0000      0.0222
  518.0000      0.0221
  519.0000      0.0220
  520.0000      0.0219
  521.0000      0.0218
  522.0000      0.0216
  523.0000      0.0215
  524.0000      0.0214
  525.0000      0.0213
  526.0000      0.0212
  527.0000      0.0211
  528.0000      0.0210
  529.0000      0.0209
  530.0000      0.0208
  531.0000      0.0207
  532.0000      0.0206
  533.0000      0.0205
  534.0000      0.0204
  535.0000      0.0203
  536.0000      0.0203
  537.0000      0.0201
  538.0000      0.0201
  539.0000      0.0200
  540.0000      0.0199
  541.0000      0.0198
  542.0000      0.0197
  543.0000      0.0197
  544.0000      0.0195
  545.0000      0.0195
  546.0000      0.0194
  547.0000      0.0193
  548.0000      0.0192
  549.0000      0.0190
  550.0000      0.0189
  551.0000      0.0188
  552.0000      0.0187
  553.0000      0.0186
  554.0000      0.0185
  555.0000      0.0184
  556.0000      0.0183
  557.0000      0.0191
  558.0000      0.0190
  559.0000      0.0189
  560.0000      0.0188
  561.0000      0.0188
  562.0000      0.0187
  563.0000      0.0186
  564.0000      0.0186
  565.0000      0.0185
  566.0000      0.0184
  567.0000      0.0183
  568.0000      0.0183
  569.0000      0.0183
  570.0000      0.0182
  571.0000      0.0181
  572.0000      0.0181
  573.0000      0.0180
  574.0000      0.0179
  575.0000      0.0179
  576.0000      0.0178
  577.0000      0.0178
  578.0000      0.0178
  579.0000      0.0177
  580.0000      0.0176
  581.0000      0.0176
  582.0000      0.0175
  583.0000      0.0175
  584.0000      0.0174
  585.0000      0.0173
  586.0000      0.0172
  587.0000      0.0171
  588.0000      0.0170
  589.0000      0.0170
  590.0000      0.0170
  591.0000      0.0170
  592.0000      0.0169
  593.0000      0.0168
  594.0000      0.0168
  595.0000      0.0167
  596.0000      0.0167
  597.0000      0.0167
  598.0000      0.0166
  599.0000      0.0165
  600.0000      0.0164
  601.0000      0.0164
  602.0000      0.0163
  603.0000      0.0163
  604.0000      0.0162
  605.0000      0.0162
  606.0000      0.0161
  607.0000      0.0160
  608.0000      0.0159
  609.0000      0.0159
  610.0000      0.0158
  611.0000      0.0157
  612.0000      0.0157
  613.0000      0.0156
  614.0000      0.0156
  615.0000      0.0156
  616.0000      0.0155
  617.0000      0.0154
  618.0000      0.0153
  619.0000      0.0153
  620.0000      0.0153
  621.0000      0.0152
  622.0000      0.0152
  623.0000      0.0152
  624.0000      0.0151
  625.0000      0.0151
  626.0000      0.0151
  627.0000      0.0150
  628.0000      0.0149
  629.0000      0.0149
  630.0000      0.0148
  631.0000      0.0147
  632.0000      0.0147
  633.0000      0.0147
  634.0000      0.0146
  635.0000      0.0145
  636.0000      0.0145
  637.0000      0.0145
  638.0000      0.0144
  639.0000      0.0144
  640.0000      0.0143
  641.0000      0.0143
  642.0000      0.0143
  643.0000      0.0143
  644.0000      0.0143
  645.0000      0.0143
  646.0000      0.0143
  647.0000      0.0142
  648.0000      0.0142
  649.0000      0.0142
  650.0000      0.0141
  651.0000      0.0140
  652.0000      0.0140
  653.0000      0.0140
  654.0000      0.0140
  655.0000      0.0139
  656.0000      0.0139
  657.0000      0.0138
  658.0000      0.0138
  659.0000      0.0137
  660.0000      0.0137
  661.0000      0.0136
  662.0000      0.0136
  663.0000      0.0136
  664.0000      0.0135
  665.0000      0.0136
  666.0000      0.0135
  667.0000      0.0135
  668.0000      0.0135
  669.0000      0.0135
  670.0000      0.0135
  671.0000      0.0135
  672.0000      0.0135
  673.0000      0.0134
  674.0000      0.0134
  675.0000      0.0133
  676.0000      0.0133
  677.0000      0.0132
  678.0000      0.0132
  679.0000      0.0131
  680.0000      0.0131
  681.0000      0.0131
  682.0000      0.0130
  683.0000      0.0129
  684.0000      0.0129
  685.0000      0.0128
  686.0000      0.0128
  687.0000      0.0127
  688.0000      0.0126
  689.0000      0.0125
  690.0000      0.0125
  691.0000      0.0124
  692.0000      0.0123
  693.0000      0.0123
  694.0000      0.0122
  695.0000      0.0121
  696.0000      0.0121
  697.0000      0.0120
  698.0000      0.0120
  699.0000      0.0120
  700.0000      0.0119
  701.0000      0.0118
  702.0000      0.0118
  703.0000      0.0117
  704.0000      0.0117
  705.0000      0.0117
  706.0000      0.0116
  707.0000      0.0115
  708.0000      0.0114
  709.0000      0.0114
  710.0000      0.0113
  711.0000      0.0113
  712.0000      0.0113
  713.0000      0.0112
  714.0000      0.0112
  715.0000      0.0111
  716.0000      0.0110
  717.0000      0.0110
  718.0000      0.0109
  719.0000      0.0109
  720.0000      0.0108
  721.0000      0.0108
  722.0000      0.0108
  723.0000      0.0107
  724.0000      0.0107
  725.0000      0.0106
  726.0000      0.0106
  727.0000      0.0106
  728.0000      0.0105
  729.0000      0.0105
  730.0000      0.0105
  731.0000      0.0104
  732.0000      0.0104
  733.0000      0.0104
  734.0000      0.0103
  735.0000      0.0103
  736.0000      0.0105
  737.0000      0.0105
  738.0000      0.0105
  739.0000      0.0104
  740.0000      0.0104
  741.0000      0.0104
  742.0000      0.0105
  743.0000      0.0104
  744.0000      0.0104
  745.0000      0.0104
  746.0000      0.0104
  747.0000      0.0104
  748.0000      0.0103
  749.0000      0.0103
  750.0000      0.0103
  751.0000      0.0102
  752.0000      0.0103
  753.0000      0.0102
  754.0000      0.0102
  755.0000      0.0101
  756.0000      0.0101
  757.0000      0.0100
  758.0000      0.0101
  759.0000      0.0100
  760.0000      0.0100
  761.0000      0.0100
  762.0000      0.0100
  763.0000      0.0099
  764.0000      0.0099
  765.0000      0.0099
  766.0000      0.0099
  767.0000      0.0099
  768.0000      0.0099
  769.0000      0.0099
  770.0000      0.0099
  771.0000      0.0099
  772.0000      0.0099
  773.0000      0.0099
  774.0000      0.0098
  775.0000      0.0099
  776.0000      0.0099
  777.0000      0.0098
  778.0000      0.0098
  779.0000      0.0098
  780.0000      0.0098
  781.0000      0.0098
  782.0000      0.0098
  783.0000      0.0097
  784.0000      0.0098
  785.0000      0.0097
  786.0000      0.0097
  787.0000      0.0097
  788.0000      0.0097
  789.0000      0.0097
  790.0000      0.0097
  791.0000      0.0097
  792.0000      0.0096
  793.0000      0.0096
  794.0000      0.0096
  795.0000      0.0096
  796.0000      0.0095
  797.0000      0.0095
  798.0000      0.0095
  799.0000      0.0094
  800.0000      0.0093
