Start Wavelength:    200.0000
End Wavelength:    800.0000
Read Mode:  ABS
Read Average:      0.1000
Nanometer Interval:      1.0000
Time:      0.0000

  200.0000      0.8062
  201.0000      0.7590
  202.0000      0.7332
  203.0000      0.7138
  204.0000      0.6883
  205.0000      0.6697
  206.0000      0.6528
  207.0000      0.6370
  208.0000      0.6181
  209.0000      0.5996
  210.0000      0.5821
  211.0000      0.5650
  212.0000      0.5468
  213.0000      0.5270
  214.0000      0.5094
  215.0000      0.4923
  216.0000      0.4748
  217.0000      0.4550
  218.0000      0.4395
  219.0000      0.4239
  220.0000      0.4090
  221.0000      0.3926
  222.0000      0.3794
  223.0000      0.3668
  224.0000      0.3546
  225.0000      0.3424
  226.0000      0.3318
  227.0000      0.3228
  228.0000      0.3131
  229.0000      0.3047
  230.0000      0.2965
  231.0000      0.2887
  232.0000      0.2829
  233.0000      0.2757
  234.0000      0.2697
  235.0000      0.2644
  236.0000      0.2595
  237.0000      0.2546
  238.0000      0.2504
  239.0000      0.2463
  240.0000      0.2424
  241.0000      0.2387
  242.0000      0.2360
  243.0000      0.2327
  244.0000      0.2299
  245.0000      0.2274
  246.0000      0.2249
  247.0000      0.2234
  248.0000      0.2206
  249.0000      0.2187
  250.0000      0.2174
  251.0000      0.2158
  252.0000      0.2136
  253.0000      0.2122
  254.0000      0.2105
  255.0000      0.2091
  256.0000      0.2075
  257.0000      0.2059
  258.0000      0.2044
  259.0000      0.2030
  260.0000      0.2015
  261.0000      0.2000
  262.0000      0.1983
  263.0000      0.1971
  264.0000      0.1953
  265.0000      0.1939
  266.0000      0.1921
  267.0000      0.1905
  268.0000      0.1889
  269.0000      0.1873
  270.0000      0.1856
  271.0000      0.1833
  272.0000      0.1819
  273.0000      0.1796
  274.0000      0.1780
  275.0000      0.1756
  276.0000      0.1740
  277.0000      0.1717
  278.0000      0.1703
  279.0000      0.1679
  280.0000      0.1647
  281.0000      0.1627
  282.0000      0.1604
  283.0000      0.1587
  284.0000      0.1559
  285.0000      0.1533
  286.0000      0.1511
  287.0000      0.1488
  288.0000      0.1461
  289.0000      0.1445
  290.0000      0.1418
  291.0000      0.1391
  292.0000      0.1370
  293.0000      0.1350
  294.0000      0.1326
  295.0000      0.1307
  296.0000      0.1280
  297.0000      0.1254
  298.0000      0.1237
  299.0000      0.1222
  300.0000      0.1204
  301.0000      0.1178
  302.0000      0.1166
  303.0000      0.1155
  304.0000      0.1136
  305.0000      0.1120
  306.0000      0.1105
  307.0000      0.1090
  308.0000      0.1076
  309.0000      0.1067
  310.0000      0.1049
  311.0000      0.1028
  312.0000      0.1018
  313.0000      0.1009
  314.0000      0.0996
  315.0000      0.0979
  316.0000      0.0968
  317.0000      0.0957
  318.0000      0.0940
  319.0000      0.0932
  320.0000      0.0913
  321.0000      0.0915
  322.0000      0.0896
  323.0000      0.0885
  324.0000      0.0884
  325.0000      0.0866
  326.0000      0.0851
  327.0000      0.0846
  328.0000      0.0842
  329.0000      0.0831
  330.0000      0.0820
  331.0000      0.0807
  332.0000      0.0799
  333.0000      0.0794
  334.0000      0.0787
  335.0000      0.0772
  336.0000      0.0761
  337.0000      0.0757
  338.0000      0.0747
  339.0000      0.0735
  340.0000      0.0728
  341.0000      0.0719
  342.0000      0.0708
  343.0000      0.0701
  344.0000      0.0688
  345.0000      0.0685
  346.0000      0.0672
  347.0000      0.0667
  348.0000      0.0653
  349.0000      0.0649
  350.0000      0.0642
  351.0000      0.0639
  352.0000      0.0626
  353.0000      0.0618
  354.0000      0.0613
  355.0000      0.0607
  356.0000      0.0604
  357.0000      0.0582
  358.0000      0.0568
  359.0000      0.0571
  360.0000      0.0594
  361.0000      0.0585
  362.0000      0.0544
  363.0000      0.0555
  364.0000      0.0548
  365.0000      0.0545
  366.0000      0.0544
  367.0000      0.0537
  368.0000      0.0517
  369.0000      0.0527
  370.0000      0.0518
  371.0000      0.0507
  372.0000      0.0498
  373.0000      0.0498
  374.0000      0.0495
  375.0000      0.0492
  376.0000      0.0474
  377.0000      0.0478
  378.0000      0.0478
  379.0000      0.0466
  380.0000      0.0453
  381.0000      0.0450
  382.0000      0.0451
  383.0000      0.0447
  384.0000      0.0443
  385.0000      0.0441
  386.0000      0.0426
  387.0000      0.0425
  388.0000      0.0424
  389.0000      0.0425
  390.0000      0.0408
  391.0000      0.0412
  392.0000      0.0412
  393.0000      0.0402
  394.0000      0.0393
  395.0000      0.0391
  396.0000      0.0394
  397.0000      0.0394
  398.0000      0.0383
  399.0000      0.0376
  400.0000      0.0371
  401.0000      0.0371
  402.0000      0.0365
  403.0000      0.0366
  404.0000      0.0352
  405.0000      0.0353
  406.0000      0.0354
  407.0000      0.0349
  408.0000      0.0338
  409.0000      0.0344
  410.0000      0.0345
  411.0000      0.0337
  412.0000      0.0329
  413.0000      0.0329
  414.0000      0.0331
  415.0000      0.0331
  416.0000      0.0319
  417.0000      0.0317
  418.0000      0.0313
  419.0000      0.0310
  420.0000      0.0307
  421.0000      0.0306
  422.0000      0.0302
  423.0000      0.0299
  424.0000      0.0296
  425.0000      0.0292
  426.0000      0.0289
  427.0000      0.0286
  428.0000      0.0285
  429.0000      0.0282
  430.0000      0.0280
  431.0000      0.0277
  432.0000      0.0276
  433.0000      0.0275
  434.0000      0.0275
  435.0000      0.0272
  436.0000      0.0270
  437.0000      0.0270
  438.0000      0.0267
  439.0000      0.0265
  440.0000      0.0263
  441.0000      0.0262
  442.0000      0.0260
  443.0000      0.0257
  444.0000      0.0253
  445.0000      0.0251
  446.0000      0.0251
  447.0000      0.0248
  448.0000      0.0245
  449.0000      0.0243
  450.0000      0.0242
  451.0000      0.0241
  452.0000      0.0239
  453.0000      0.0238
  454.0000      0.0235
  455.0000      0.0234
  456.0000      0.0232
  457.0000      0.0231
  458.0000      0.0229
  459.0000      0.0229
  460.0000      0.0230
  461.0000      0.0231
  462.0000      0.0230
  463.0000      0.0231
  464.0000      0.0231
  465.0000      0.0231
  466.0000      0.0229
  467.0000      0.0229
  468.0000      0.0228
  469.0000      0.0226
  470.0000      0.0223
  471.0000      0.0221
  472.0000      0.0219
  473.0000      0.0216
  474.0000      0.0214
  475.0000      0.0212
  476.0000      0.0210
  477.0000      0.0209
  478.0000      0.0207
  479.0000      0.0206
  480.0000      0.0206
  481.0000      0.0205
  482.0000      0.0204
  483.0000      0.0203
  484.0000      0.0201
  485.0000      0.0200
  486.0000      0.0198
  487.0000      0.0197
  488.0000      0.0195
  489.0000      0.0193
  490.0000      0.0192
  491.0000      0.0192
  492.0000      0.0190
  493.0000      0.0188
  494.0000      0.0186
  495.0000      0.0185
  496.0000      0.0184
  497.0000      0.0183
  498.0000      0.0183
  499.0000      0.0182
  500.0000      0.0181
  501.0000      0.0180
  502.0000      0.0179
  503.0000      0.0178
  504.0000      0.0176
  505.0000      0.0175
  506.0000      0.0174
  507.0000      0.0173
  508.0000      0.0172
  509.0000      0.0170
  510.0000      0.0170
  511.0000      0.0168
  512.0000      0.0167
  513.0000      0.0165
  514.0000      0.0165
  515.0000      0.0164
  516.0000      0.0163
  517.0000      0.0162
  518.0000      0.0162
  519.0000      0.0161
  520.0000      0.0160
  521.0000      0.0159
  522.0000      0.0158
  523.0000      0.0157
  524.0000      0.0157
  525.0000      0.0156
  526.0000      0.0156
  527.0000      0.0155
  528.0000      0.0155
  529.0000      0.0155
  530.0000      0.0155
  531.0000      0.0155
  532.0000      0.0155
  533.0000      0.0156
  534.0000      0.0155
  535.0000      0.0155
  536.0000      0.0154
  537.0000      0.0154
  538.0000      0.0153
  539.0000      0.0153
  540.0000      0.0152
  541.0000      0.0152
  542.0000      0.0152
  543.0000      0.0152
  544.0000      0.0150
  545.0000      0.0149
  546.0000      0.0149
  547.0000      0.0149
  548.0000      0.0148
  549.0000      0.0147
  550.0000      0.0146
  551.0000      0.0145
  552.0000      0.0144
  553.0000      0.0142
  554.0000      0.0141
  555.0000      0.0140
  556.0000      0.0139
  557.0000      0.0130
  558.0000      0.0131
  559.0000      0.0133
  560.0000      0.0134
  561.0000      0.0134
  562.0000      0.0134
  563.0000      0.0134
  564.0000      0.0134
  565.0000      0.0134
  566.0000      0.0134
  567.0000      0.0134
  568.0000      0.0133
  569.0000      0.0133
  570.0000      0.0133
  571.0000      0.0133
  572.0000      0.0132
  573.0000      0.0132
  574.0000      0.0132
  575.0000      0.0132
  576.0000      0.0131
  577.0000      0.0131
  578.0000      0.0131
  579.0000      0.0131
  580.0000      0.0130
  581.0000      0.0130
  582.0000      0.0130
  583.0000      0.0129
  584.0000      0.0128
  585.0000      0.0127
  586.0000      0.0126
  587.0000      0.0125
  588.0000      0.0125
  589.0000      0.0124
  590.0000      0.0123
  591.0000      0.0123
  592.0000      0.0122
  593.0000      0.0122
  594.0000      0.0122
  595.0000      0.0122
  596.0000      0.0122
  597.0000      0.0123
  598.0000      0.0122
  599.0000      0.0122
  600.0000      0.0123
  601.0000      0.0123
  602.0000      0.0123
  603.0000      0.0123
  604.0000      0.0123
  605.0000      0.0123
  606.0000      0.0123
  607.0000      0.0124
  608.0000      0.0124
  609.0000      0.0125
  610.0000      0.0124
  611.0000      0.0125
  612.0000      0.0125
  613.0000      0.0126
  614.0000      0.0126
  615.0000      0.0127
  616.0000      0.0127
  617.0000      0.0127
  618.0000      0.0128
  619.0000      0.0129
  620.0000      0.0127
  621.0000      0.0127
  622.0000      0.0127
  623.0000      0.0127
  624.0000      0.0126
  625.0000      0.0126
  626.0000      0.0126
  627.0000      0.0125
  628.0000      0.0124
  629.0000      0.0122
  630.0000      0.0121
  631.0000      0.0120
  632.0000      0.0120
  633.0000      0.0120
  634.0000      0.0120
  635.0000      0.0121
  636.0000      0.0121
  637.0000      0.0122
  638.0000      0.0121
  639.0000      0.0121
  640.0000      0.0120
  641.0000      0.0120
  642.0000      0.0119
  643.0000      0.0118
  644.0000      0.0117
  645.0000      0.0115
  646.0000      0.0114
  647.0000      0.0113
  648.0000      0.0112
  649.0000      0.0112
  650.0000      0.0111
  651.0000      0.0111
  652.0000      0.0111
  653.0000      0.0111
  654.0000      0.0111
  655.0000      0.0112
  656.0000      0.0112
  657.0000      0.0112
  658.0000      0.0112
  659.0000      0.0113
  660.0000      0.0113
  661.0000      0.0114
  662.0000      0.0113
  663.0000      0.0113
  664.0000      0.0113
  665.0000      0.0112
  666.0000      0.0112
  667.0000      0.0111
  668.0000      0.0110
  669.0000      0.0108
  670.0000      0.0108
  671.0000      0.0107
  672.0000      0.0106
  673.0000      0.0105
  674.0000      0.0104
  675.0000      0.0104
  676.0000      0.0103
  677.0000      0.0102
  678.0000      0.0101
  679.0000      0.0101
  680.0000      0.0100
  681.0000      0.0100
  682.0000      0.0099
  683.0000      0.0099
  684.0000      0.0098
  685.0000      0.0098
  686.0000      0.0097
  687.0000      0.0096
  688.0000      0.0095
  689.0000      0.0094
  690.0000      0.0093
  691.0000      0.0092
  692.0000      0.0091
  693.0000      0.0090
  694.0000      0.0089
  695.0000      0.0089
  696.0000      0.0087
  697.0000      0.0086
  698.0000      0.0086
  699.0000      0.0085
  700.0000      0.0084
  701.0000      0.0084
  702.0000      0.0083
  703.0000      0.0083
  704.0000      0.0083
  705.0000      0.0084
  706.0000      0.0084
  707.0000      0.0085
  708.0000      0.0085
  709.0000      0.0085
  710.0000      0.0085
  711.0000      0.0085
  712.0000      0.0086
  713.0000      0.0086
  714.0000      0.0085
  715.0000      0.0086
  716.0000      0.0085
  717.0000      0.0085
  718.0000      0.0085
  719.0000      0.0085
  720.0000      0.0085
  721.0000      0.0085
  722.0000      0.0085
  723.0000      0.0084
  724.0000      0.0083
  725.0000      0.0083
  726.0000      0.0082
  727.0000      0.0082
  728.0000      0.0081
  729.0000      0.0080
  730.0000      0.0079
  731.0000      0.0079
  732.0000      0.0078
  733.0000      0.0078
  734.0000      0.0078
  735.0000      0.0077
  736.0000      0.0087
  737.0000      0.0086
  738.0000      0.0085
  739.0000      0.0084
  740.0000      0.0084
  741.0000      0.0084
  742.0000      0.0083
  743.0000      0.0082
  744.0000      0.0081
  745.0000      0.0080
  746.0000      0.0079
  747.0000      0.0079
  748.0000      0.0078
  749.0000      0.0078
  750.0000      0.0077
  751.0000      0.0077
  752.0000      0.0077
  753.0000      0.0077
  754.0000      0.0077
  755.0000      0.0077
  756.0000      0.0077
  757.0000      0.0077
  758.0000      0.0079
  759.0000      0.0078
  760.0000      0.0079
  761.0000      0.0080
  762.0000      0.0080
  763.0000      0.0080
  764.0000      0.0080
  765.0000      0.0081
  766.0000      0.0081
  767.0000      0.0082
  768.0000      0.0081
  769.0000      0.0081
  770.0000      0.0082
  771.0000      0.0082
  772.0000      0.0082
  773.0000      0.0082
  774.0000      0.0081
  775.0000      0.0081
  776.0000      0.0081
  777.0000      0.0080
  778.0000      0.0080
  779.0000      0.0079
  780.0000      0.0078
  781.0000      0.0077
  782.0000      0.0077
  783.0000      0.0078
  784.0000      0.0078
  785.0000      0.0078
  786.0000      0.0077
  787.0000      0.0078
  788.0000      0.0078
  789.0000      0.0078
  790.0000      0.0078
  791.0000      0.0078
  792.0000      0.0078
  793.0000      0.0079
  794.0000      0.0079
  795.0000      0.0079
  796.0000      0.0079
  797.0000      0.0080
  798.0000      0.0080
  799.0000      0.0080
  800.0000      0.0080
