Start Wavelength:    200.0000
End Wavelength:    800.0000
Read Mode:  ABS
Read Average:      0.1000
Nanometer Interval:      1.0000
Time:      0.0000

  200.0000      1.6908
  201.0000      1.6504
  202.0000      1.6423
  203.0000      1.5988
  204.0000      1.5564
  205.0000      1.5271
  206.0000      1.4947
  207.0000      1.4465
  208.0000      1.4092
  209.0000      1.3630
  210.0000      1.3016
  211.0000      1.2542
  212.0000      1.1980
  213.0000      1.1308
  214.0000      1.0704
  215.0000      1.0121
  216.0000      0.9528
  217.0000      0.8857
  218.0000      0.8278
  219.0000      0.7723
  220.0000      0.7180
  221.0000      0.6618
  222.0000      0.6146
  223.0000      0.5692
  224.0000      0.5277
  225.0000      0.4874
  226.0000      0.4537
  227.0000      0.4227
  228.0000      0.3960
  229.0000      0.3698
  230.0000      0.3481
  231.0000      0.3296
  232.0000      0.3130
  233.0000      0.2965
  234.0000      0.2846
  235.0000      0.2736
  236.0000      0.2639
  237.0000      0.2544
  238.0000      0.2478
  239.0000      0.2414
  240.0000      0.2353
  241.0000      0.2295
  242.0000      0.2253
  243.0000      0.2215
  244.0000      0.2174
  245.0000      0.2139
  246.0000      0.2111
  247.0000      0.2085
  248.0000      0.2058
  249.0000      0.2042
  250.0000      0.2018
  251.0000      0.1995
  252.0000      0.1976
  253.0000      0.1962
  254.0000      0.1939
  255.0000      0.1931
  256.0000      0.1915
  257.0000      0.1896
  258.0000      0.1886
  259.0000      0.1864
  260.0000      0.1849
  261.0000      0.1836
  262.0000      0.1827
  263.0000      0.1805
  264.0000      0.1790
  265.0000      0.1783
  266.0000      0.1762
  267.0000      0.1751
  268.0000      0.1735
  269.0000      0.1720
  270.0000      0.1708
  271.0000      0.1691
  272.0000      0.1676
  273.0000      0.1656
  274.0000      0.1643
  275.0000      0.1628
  276.0000      0.1608
  277.0000      0.1586
  278.0000      0.1573
  279.0000      0.1566
  280.0000      0.1543
  281.0000      0.1518
  282.0000      0.1503
  283.0000      0.1493
  284.0000      0.1473
  285.0000      0.1451
  286.0000      0.1430
  287.0000      0.1405
  288.0000      0.1389
  289.0000      0.1383
  290.0000      0.1350
  291.0000      0.1329
  292.0000      0.1313
  293.0000      0.1301
  294.0000      0.1277
  295.0000      0.1258
  296.0000      0.1243
  297.0000      0.1224
  298.0000      0.1210
  299.0000      0.1199
  300.0000      0.1176
  301.0000      0.1155
  302.0000      0.1146
  303.0000      0.1135
  304.0000      0.1111
  305.0000      0.1104
  306.0000      0.1096
  307.0000      0.1081
  308.0000      0.1064
  309.0000      0.1051
  310.0000      0.1042
  311.0000      0.1027
  312.0000      0.1016
  313.0000      0.1003
  314.0000      0.0990
  315.0000      0.0982
  316.0000      0.0977
  317.0000      0.0955
  318.0000      0.0934
  319.0000      0.0928
  320.0000      0.0921
  321.0000      0.0916
  322.0000      0.0892
  323.0000      0.0879
  324.0000      0.0872
  325.0000      0.0853
  326.0000      0.0840
  327.0000      0.0830
  328.0000      0.0830
  329.0000      0.0812
  330.0000      0.0803
  331.0000      0.0790
  332.0000      0.0781
  333.0000      0.0774
  334.0000      0.0768
  335.0000      0.0755
  336.0000      0.0739
  337.0000      0.0733
  338.0000      0.0720
  339.0000      0.0714
  340.0000      0.0712
  341.0000      0.0703
  342.0000      0.0686
  343.0000      0.0678
  344.0000      0.0675
  345.0000      0.0670
  346.0000      0.0651
  347.0000      0.0646
  348.0000      0.0637
  349.0000      0.0631
  350.0000      0.0624
  351.0000      0.0619
  352.0000      0.0607
  353.0000      0.0602
  354.0000      0.0595
  355.0000      0.0583
  356.0000      0.0579
  357.0000      0.0564
  358.0000      0.0560
  359.0000      0.0561
  360.0000      0.0560
  361.0000      0.0540
  362.0000      0.0521
  363.0000      0.0555
  364.0000      0.0532
  365.0000      0.0504
  366.0000      0.0508
  367.0000      0.0518
  368.0000      0.0509
  369.0000      0.0494
  370.0000      0.0497
  371.0000      0.0487
  372.0000      0.0491
  373.0000      0.0475
  374.0000      0.0470
  375.0000      0.0467
  376.0000      0.0455
  377.0000      0.0460
  378.0000      0.0455
  379.0000      0.0445
  380.0000      0.0437
  381.0000      0.0433
  382.0000      0.0429
  383.0000      0.0424
  384.0000      0.0422
  385.0000      0.0423
  386.0000      0.0407
  387.0000      0.0402
  388.0000      0.0408
  389.0000      0.0401
  390.0000      0.0391
  391.0000      0.0390
  392.0000      0.0391
  393.0000      0.0380
  394.0000      0.0377
  395.0000      0.0367
  396.0000      0.0371
  397.0000      0.0371
  398.0000      0.0365
  399.0000      0.0357
  400.0000      0.0344
  401.0000      0.0348
  402.0000      0.0344
  403.0000      0.0340
  404.0000      0.0335
  405.0000      0.0334
  406.0000      0.0336
  407.0000      0.0329
  408.0000      0.0318
  409.0000      0.0320
  410.0000      0.0322
  411.0000      0.0312
  412.0000      0.0306
  413.0000      0.0305
  414.0000      0.0305
  415.0000      0.0302
  416.0000      0.0306
  417.0000      0.0303
  418.0000      0.0300
  419.0000      0.0297
  420.0000      0.0295
  421.0000      0.0292
  422.0000      0.0290
  423.0000      0.0289
  424.0000      0.0285
  425.0000      0.0282
  426.0000      0.0278
  427.0000      0.0276
  428.0000      0.0274
  429.0000      0.0271
  430.0000      0.0268
  431.0000      0.0264
  432.0000      0.0262
  433.0000      0.0259
  434.0000      0.0257
  435.0000      0.0254
  436.0000      0.0252
  437.0000      0.0250
  438.0000      0.0249
  439.0000      0.0244
  440.0000      0.0243
  441.0000      0.0241
  442.0000      0.0239
  443.0000      0.0236
  444.0000      0.0233
  445.0000      0.0231
  446.0000      0.0229
  447.0000      0.0226
  448.0000      0.0224
  449.0000      0.0223
  450.0000      0.0221
  451.0000      0.0219
  452.0000      0.0217
  453.0000      0.0216
  454.0000      0.0214
  455.0000      0.0213
  456.0000      0.0211
  457.0000      0.0209
  458.0000      0.0207
  459.0000      0.0205
  460.0000      0.0205
  461.0000      0.0204
  462.0000      0.0204
  463.0000      0.0203
  464.0000      0.0203
  465.0000      0.0201
  466.0000      0.0200
  467.0000      0.0201
  468.0000      0.0199
  469.0000      0.0199
  470.0000      0.0197
  471.0000      0.0196
  472.0000      0.0194
  473.0000      0.0191
  474.0000      0.0189
  475.0000      0.0188
  476.0000      0.0186
  477.0000      0.0185
  478.0000      0.0183
  479.0000      0.0182
  480.0000      0.0180
  481.0000      0.0178
  482.0000      0.0177
  483.0000      0.0177
  484.0000      0.0175
  485.0000      0.0174
  486.0000      0.0172
  487.0000      0.0172
  488.0000      0.0170
  489.0000      0.0168
  490.0000      0.0167
  491.0000      0.0167
  492.0000      0.0166
  493.0000      0.0165
  494.0000      0.0164
  495.0000      0.0163
  496.0000      0.0162
  497.0000      0.0161
  498.0000      0.0160
  499.0000      0.0158
  500.0000      0.0157
  501.0000      0.0156
  502.0000      0.0155
  503.0000      0.0154
  504.0000      0.0152
  505.0000      0.0151
  506.0000      0.0151
  507.0000      0.0150
  508.0000      0.0149
  509.0000      0.0147
  510.0000      0.0147
  511.0000      0.0145
  512.0000      0.0144
  513.0000      0.0143
  514.0000      0.0143
  515.0000      0.0142
  516.0000      0.0142
  517.0000      0.0141
  518.0000      0.0142
  519.0000      0.0141
  520.0000      0.0141
  521.0000      0.0140
  522.0000      0.0139
  523.0000      0.0138
  524.0000      0.0138
  525.0000      0.0137
  526.0000      0.0137
  527.0000      0.0136
  528.0000      0.0134
  529.0000      0.0133
  530.0000      0.0133
  531.0000      0.0132
  532.0000      0.0132
  533.0000      0.0131
  534.0000      0.0131
  535.0000      0.0130
  536.0000      0.0129
  537.0000      0.0128
  538.0000      0.0127
  539.0000      0.0126
  540.0000      0.0125
  541.0000      0.0125
  542.0000      0.0125
  543.0000      0.0125
  544.0000      0.0124
  545.0000      0.0124
  546.0000      0.0124
  547.0000      0.0124
  548.0000      0.0124
  549.0000      0.0123
  550.0000      0.0122
  551.0000      0.0122
  552.0000      0.0122
  553.0000      0.0123
  554.0000      0.0123
  555.0000      0.0122
  556.0000      0.0122
  557.0000      0.0139
  558.0000      0.0140
  559.0000      0.0140
  560.0000      0.0140
  561.0000      0.0140
  562.0000      0.0141
  563.0000      0.0142
  564.0000      0.0142
  565.0000      0.0141
  566.0000      0.0141
  567.0000      0.0141
  568.0000      0.0140
  569.0000      0.0139
  570.0000      0.0139
  571.0000      0.0138
  572.0000      0.0137
  573.0000      0.0136
  574.0000      0.0135
  575.0000      0.0134
  576.0000      0.0132
  577.0000      0.0130
  578.0000      0.0128
  579.0000      0.0127
  580.0000      0.0125
  581.0000      0.0124
  582.0000      0.0123
  583.0000      0.0122
  584.0000      0.0121
  585.0000      0.0120
  586.0000      0.0119
  587.0000      0.0119
  588.0000      0.0119
  589.0000      0.0118
  590.0000      0.0118
  591.0000      0.0117
  592.0000      0.0117
  593.0000      0.0117
  594.0000      0.0117
  595.0000      0.0116
  596.0000      0.0116
  597.0000      0.0115
  598.0000      0.0114
  599.0000      0.0113
  600.0000      0.0113
  601.0000      0.0111
  602.0000      0.0110
  603.0000      0.0108
  604.0000      0.0107
  605.0000      0.0106
  606.0000      0.0106
  607.0000      0.0105
  608.0000      0.0104
  609.0000      0.0104
  610.0000      0.0104
  611.0000      0.0103
  612.0000      0.0102
  613.0000      0.0102
  614.0000      0.0101
  615.0000      0.0101
  616.0000      0.0101
  617.0000      0.0101
  618.0000      0.0100
  619.0000      0.0099
  620.0000      0.0099
  621.0000      0.0098
  622.0000      0.0099
  623.0000      0.0098
  624.0000      0.0098
  625.0000      0.0098
  626.0000      0.0098
  627.0000      0.0098
  628.0000      0.0098
  629.0000      0.0098
  630.0000      0.0098
  631.0000      0.0098
  632.0000      0.0098
  633.0000      0.0098
  634.0000      0.0098
  635.0000      0.0098
  636.0000      0.0098
  637.0000      0.0099
  638.0000      0.0098
  639.0000      0.0098
  640.0000      0.0097
  641.0000      0.0097
  642.0000      0.0096
  643.0000      0.0096
  644.0000      0.0095
  645.0000      0.0095
  646.0000      0.0094
  647.0000      0.0094
  648.0000      0.0094
  649.0000      0.0093
  650.0000      0.0092
  651.0000      0.0092
  652.0000      0.0091
  653.0000      0.0091
  654.0000      0.0090
  655.0000      0.0090
  656.0000      0.0090
  657.0000      0.0090
  658.0000      0.0090
  659.0000      0.0090
  660.0000      0.0089
  661.0000      0.0089
  662.0000      0.0089
  663.0000      0.0088
  664.0000      0.0089
  665.0000      0.0089
  666.0000      0.0090
  667.0000      0.0090
  668.0000      0.0090
  669.0000      0.0090
  670.0000      0.0090
  671.0000      0.0090
  672.0000      0.0090
  673.0000      0.0090
  674.0000      0.0090
  675.0000      0.0090
  676.0000      0.0090
  677.0000      0.0089
  678.0000      0.0089
  679.0000      0.0089
  680.0000      0.0089
  681.0000      0.0089
  682.0000      0.0089
  683.0000      0.0089
  684.0000      0.0089
  685.0000      0.0088
  686.0000      0.0088
  687.0000      0.0087
  688.0000      0.0087
  689.0000      0.0086
  690.0000      0.0086
  691.0000      0.0085
  692.0000      0.0085
  693.0000      0.0085
  694.0000      0.0084
  695.0000      0.0084
  696.0000      0.0084
  697.0000      0.0084
  698.0000      0.0084
  699.0000      0.0084
  700.0000      0.0083
  701.0000      0.0083
  702.0000      0.0083
  703.0000      0.0083
  704.0000      0.0083
  705.0000      0.0083
  706.0000      0.0083
  707.0000      0.0083
  708.0000      0.0082
  709.0000      0.0083
  710.0000      0.0083
  711.0000      0.0082
  712.0000      0.0082
  713.0000      0.0082
  714.0000      0.0082
  715.0000      0.0081
  716.0000      0.0081
  717.0000      0.0081
  718.0000      0.0080
  719.0000      0.0080
  720.0000      0.0079
  721.0000      0.0079
  722.0000      0.0078
  723.0000      0.0078
  724.0000      0.0078
  725.0000      0.0078
  726.0000      0.0077
  727.0000      0.0077
  728.0000      0.0076
  729.0000      0.0075
  730.0000      0.0075
  731.0000      0.0074
  732.0000      0.0074
  733.0000      0.0073
  734.0000      0.0073
  735.0000      0.0072
  736.0000      0.0073
  737.0000      0.0072
  738.0000      0.0072
  739.0000      0.0072
  740.0000      0.0073
  741.0000      0.0072
  742.0000      0.0073
  743.0000      0.0073
  744.0000      0.0073
  745.0000      0.0073
  746.0000      0.0072
  747.0000      0.0072
  748.0000      0.0072
  749.0000      0.0073
  750.0000      0.0072
  751.0000      0.0071
  752.0000      0.0072
  753.0000      0.0072
  754.0000      0.0071
  755.0000      0.0070
  756.0000      0.0071
  757.0000      0.0070
  758.0000      0.0070
  759.0000      0.0068
  760.0000      0.0068
  761.0000      0.0068
  762.0000      0.0067
  763.0000      0.0066
  764.0000      0.0066
  765.0000      0.0066
  766.0000      0.0066
  767.0000      0.0066
  768.0000      0.0066
  769.0000      0.0066
  770.0000      0.0066
  771.0000      0.0066
  772.0000      0.0066
  773.0000      0.0067
  774.0000      0.0066
  775.0000      0.0066
  776.0000      0.0066
  777.0000      0.0067
  778.0000      0.0067
  779.0000      0.0067
  780.0000      0.0067
  781.0000      0.0067
  782.0000      0.0067
  783.0000      0.0067
  784.0000      0.0067
  785.0000      0.0067
  786.0000      0.0067
  787.0000      0.0067
  788.0000      0.0067
  789.0000      0.0068
  790.0000      0.0068
  791.0000      0.0068
  792.0000      0.0068
  793.0000      0.0068
  794.0000      0.0069
  795.0000      0.0069
  796.0000      0.0069
  797.0000      0.0069
  798.0000      0.0069
  799.0000      0.0069
  800.0000      0.0068
