Start Wavelength:    200.0000
End Wavelength:    800.0000
Read Mode:  ABS
Read Average:      0.1000
Nanometer Interval:      1.0000
Time:      0.0000

  200.0000      0.6819
  201.0000      0.6318
  202.0000      0.6032
  203.0000      0.5821
  204.0000      0.5622
  205.0000      0.5452
  206.0000      0.5302
  207.0000      0.5152
  208.0000      0.5032
  209.0000      0.4886
  210.0000      0.4760
  211.0000      0.4620
  212.0000      0.4503
  213.0000      0.4373
  214.0000      0.4257
  215.0000      0.4134
  216.0000      0.4019
  217.0000      0.3909
  218.0000      0.3801
  219.0000      0.3711
  220.0000      0.3603
  221.0000      0.3494
  222.0000      0.3422
  223.0000      0.3338
  224.0000      0.3248
  225.0000      0.3165
  226.0000      0.3096
  227.0000      0.3030
  228.0000      0.2969
  229.0000      0.2900
  230.0000      0.2834
  231.0000      0.2776
  232.0000      0.2729
  233.0000      0.2671
  234.0000      0.2620
  235.0000      0.2578
  236.0000      0.2533
  237.0000      0.2490
  238.0000      0.2453
  239.0000      0.2411
  240.0000      0.2382
  241.0000      0.2347
  242.0000      0.2319
  243.0000      0.2292
  244.0000      0.2262
  245.0000      0.2241
  246.0000      0.2219
  247.0000      0.2204
  248.0000      0.2178
  249.0000      0.2158
  250.0000      0.2146
  251.0000      0.2133
  252.0000      0.2111
  253.0000      0.2101
  254.0000      0.2080
  255.0000      0.2074
  256.0000      0.2060
  257.0000      0.2042
  258.0000      0.2031
  259.0000      0.2017
  260.0000      0.1999
  261.0000      0.1988
  262.0000      0.1972
  263.0000      0.1964
  264.0000      0.1941
  265.0000      0.1927
  266.0000      0.1907
  267.0000      0.1885
  268.0000      0.1880
  269.0000      0.1854
  270.0000      0.1836
  271.0000      0.1813
  272.0000      0.1793
  273.0000      0.1775
  274.0000      0.1757
  275.0000      0.1731
  276.0000      0.1706
  277.0000      0.1688
  278.0000      0.1667
  279.0000      0.1648
  280.0000      0.1616
  281.0000      0.1595
  282.0000      0.1564
  283.0000      0.1555
  284.0000      0.1527
  285.0000      0.1492
  286.0000      0.1476
  287.0000      0.1450
  288.0000      0.1436
  289.0000      0.1414
  290.0000      0.1386
  291.0000      0.1361
  292.0000      0.1341
  293.0000      0.1333
  294.0000      0.1300
  295.0000      0.1283
  296.0000      0.1263
  297.0000      0.1241
  298.0000      0.1218
  299.0000      0.1206
  300.0000      0.1182
  301.0000      0.1158
  302.0000      0.1151
  303.0000      0.1141
  304.0000      0.1111
  305.0000      0.1101
  306.0000      0.1087
  307.0000      0.1065
  308.0000      0.1053
  309.0000      0.1043
  310.0000      0.1029
  311.0000      0.1010
  312.0000      0.1002
  313.0000      0.0983
  314.0000      0.0972
  315.0000      0.0968
  316.0000      0.0949
  317.0000      0.0935
  318.0000      0.0917
  319.0000      0.0912
  320.0000      0.0904
  321.0000      0.0902
  322.0000      0.0865
  323.0000      0.0853
  324.0000      0.0849
  325.0000      0.0835
  326.0000      0.0816
  327.0000      0.0805
  328.0000      0.0798
  329.0000      0.0789
  330.0000      0.0774
  331.0000      0.0764
  332.0000      0.0754
  333.0000      0.0748
  334.0000      0.0744
  335.0000      0.0727
  336.0000      0.0709
  337.0000      0.0710
  338.0000      0.0699
  339.0000      0.0693
  340.0000      0.0684
  341.0000      0.0675
  342.0000      0.0664
  343.0000      0.0659
  344.0000      0.0648
  345.0000      0.0638
  346.0000      0.0627
  347.0000      0.0622
  348.0000      0.0611
  349.0000      0.0607
  350.0000      0.0595
  351.0000      0.0591
  352.0000      0.0586
  353.0000      0.0575
  354.0000      0.0570
  355.0000      0.0565
  356.0000      0.0561
  357.0000      0.0535
  358.0000      0.0545
  359.0000      0.0539
  360.0000      0.0538
  361.0000      0.0535
  362.0000      0.0500
  363.0000      0.0512
  364.0000      0.0501
  365.0000      0.0493
  366.0000      0.0487
  367.0000      0.0490
  368.0000      0.0489
  369.0000      0.0469
  370.0000      0.0469
  371.0000      0.0465
  372.0000      0.0466
  373.0000      0.0451
  374.0000      0.0440
  375.0000      0.0436
  376.0000      0.0428
  377.0000      0.0436
  378.0000      0.0430
  379.0000      0.0417
  380.0000      0.0412
  381.0000      0.0413
  382.0000      0.0407
  383.0000      0.0400
  384.0000      0.0402
  385.0000      0.0401
  386.0000      0.0389
  387.0000      0.0378
  388.0000      0.0380
  389.0000      0.0387
  390.0000      0.0378
  391.0000      0.0378
  392.0000      0.0370
  393.0000      0.0366
  394.0000      0.0359
  395.0000      0.0361
  396.0000      0.0363
  397.0000      0.0360
  398.0000      0.0347
  399.0000      0.0344
  400.0000      0.0340
  401.0000      0.0337
  402.0000      0.0338
  403.0000      0.0340
  404.0000      0.0326
  405.0000      0.0328
  406.0000      0.0323
  407.0000      0.0324
  408.0000      0.0320
  409.0000      0.0323
  410.0000      0.0315
  411.0000      0.0310
  412.0000      0.0308
  413.0000      0.0310
  414.0000      0.0305
  415.0000      0.0305
  416.0000      0.0303
  417.0000      0.0300
  418.0000      0.0297
  419.0000      0.0294
  420.0000      0.0292
  421.0000      0.0288
  422.0000      0.0287
  423.0000      0.0286
  424.0000      0.0284
  425.0000      0.0280
  426.0000      0.0278
  427.0000      0.0276
  428.0000      0.0275
  429.0000      0.0274
  430.0000      0.0272
  431.0000      0.0269
  432.0000      0.0269
  433.0000      0.0268
  434.0000      0.0266
  435.0000      0.0264
  436.0000      0.0263
  437.0000      0.0262
  438.0000      0.0260
  439.0000      0.0257
  440.0000      0.0254
  441.0000      0.0253
  442.0000      0.0251
  443.0000      0.0248
  444.0000      0.0245
  445.0000      0.0243
  446.0000      0.0241
  447.0000      0.0238
  448.0000      0.0235
  449.0000      0.0233
  450.0000      0.0231
  451.0000      0.0228
  452.0000      0.0226
  453.0000      0.0224
  454.0000      0.0222
  455.0000      0.0219
  456.0000      0.0218
  457.0000      0.0215
  458.0000      0.0213
  459.0000      0.0210
  460.0000      0.0209
  461.0000      0.0209
  462.0000      0.0207
  463.0000      0.0208
  464.0000      0.0209
  465.0000      0.0208
  466.0000      0.0206
  467.0000      0.0206
  468.0000      0.0206
  469.0000      0.0205
  470.0000      0.0203
  471.0000      0.0202
  472.0000      0.0202
  473.0000      0.0200
  474.0000      0.0199
  475.0000      0.0197
  476.0000      0.0195
  477.0000      0.0193
  478.0000      0.0192
  479.0000      0.0190
  480.0000      0.0188
  481.0000      0.0187
  482.0000      0.0186
  483.0000      0.0184
  484.0000      0.0182
  485.0000      0.0181
  486.0000      0.0179
  487.0000      0.0179
  488.0000      0.0177
  489.0000      0.0176
  490.0000      0.0176
  491.0000      0.0176
  492.0000      0.0176
  493.0000      0.0175
  494.0000      0.0175
  495.0000      0.0175
  496.0000      0.0175
  497.0000      0.0174
  498.0000      0.0174
  499.0000      0.0174
  500.0000      0.0173
  501.0000      0.0174
  502.0000      0.0173
  503.0000      0.0173
  504.0000      0.0173
  505.0000      0.0172
  506.0000      0.0171
  507.0000      0.0170
  508.0000      0.0169
  509.0000      0.0168
  510.0000      0.0168
  511.0000      0.0168
  512.0000      0.0167
  513.0000      0.0166
  514.0000      0.0166
  515.0000      0.0166
  516.0000      0.0166
  517.0000      0.0165
  518.0000      0.0165
  519.0000      0.0165
  520.0000      0.0164
  521.0000      0.0164
  522.0000      0.0164
  523.0000      0.0163
  524.0000      0.0162
  525.0000      0.0160
  526.0000      0.0158
  527.0000      0.0156
  528.0000      0.0154
  529.0000      0.0152
  530.0000      0.0150
  531.0000      0.0149
  532.0000      0.0147
  533.0000      0.0146
  534.0000      0.0145
  535.0000      0.0143
  536.0000      0.0142
  537.0000      0.0140
  538.0000      0.0140
  539.0000      0.0140
  540.0000      0.0139
  541.0000      0.0138
  542.0000      0.0137
  543.0000      0.0137
  544.0000      0.0136
  545.0000      0.0135
  546.0000      0.0136
  547.0000      0.0134
  548.0000      0.0135
  549.0000      0.0134
  550.0000      0.0134
  551.0000      0.0133
  552.0000      0.0134
  553.0000      0.0134
  554.0000      0.0135
  555.0000      0.0135
  556.0000      0.0135
  557.0000      0.0136
  558.0000      0.0136
  559.0000      0.0136
  560.0000      0.0135
  561.0000      0.0134
  562.0000      0.0133
  563.0000      0.0131
  564.0000      0.0130
  565.0000      0.0128
  566.0000      0.0127
  567.0000      0.0127
  568.0000      0.0126
  569.0000      0.0126
  570.0000      0.0126
  571.0000      0.0126
  572.0000      0.0126
  573.0000      0.0126
  574.0000      0.0126
  575.0000      0.0126
  576.0000      0.0127
  577.0000      0.0128
  578.0000      0.0128
  579.0000      0.0127
  580.0000      0.0126
  581.0000      0.0125
  582.0000      0.0124
  583.0000      0.0124
  584.0000      0.0123
  585.0000      0.0122
  586.0000      0.0121
  587.0000      0.0120
  588.0000      0.0118
  589.0000      0.0117
  590.0000      0.0116
  591.0000      0.0116
  592.0000      0.0116
  593.0000      0.0115
  594.0000      0.0115
  595.0000      0.0115
  596.0000      0.0116
  597.0000      0.0115
  598.0000      0.0115
  599.0000      0.0116
  600.0000      0.0117
  601.0000      0.0117
  602.0000      0.0117
  603.0000      0.0118
  604.0000      0.0118
  605.0000      0.0118
  606.0000      0.0117
  607.0000      0.0115
  608.0000      0.0114
  609.0000      0.0114
  610.0000      0.0113
  611.0000      0.0113
  612.0000      0.0113
  613.0000      0.0113
  614.0000      0.0113
  615.0000      0.0113
  616.0000      0.0112
  617.0000      0.0112
  618.0000      0.0112
  619.0000      0.0113
  620.0000      0.0114
  621.0000      0.0114
  622.0000      0.0114
  623.0000      0.0113
  624.0000      0.0114
  625.0000      0.0113
  626.0000      0.0113
  627.0000      0.0112
  628.0000      0.0112
  629.0000      0.0112
  630.0000      0.0112
  631.0000      0.0112
  632.0000      0.0112
  633.0000      0.0112
  634.0000      0.0111
  635.0000      0.0111
  636.0000      0.0110
  637.0000      0.0110
  638.0000      0.0110
  639.0000      0.0110
  640.0000      0.0111
  641.0000      0.0111
  642.0000      0.0111
  643.0000      0.0111
  644.0000      0.0112
  645.0000      0.0112
  646.0000      0.0113
  647.0000      0.0113
  648.0000      0.0114
  649.0000      0.0114
  650.0000      0.0114
  651.0000      0.0114
  652.0000      0.0114
  653.0000      0.0114
  654.0000      0.0115
  655.0000      0.0115
  656.0000      0.0116
  657.0000      0.0116
  658.0000      0.0115
  659.0000      0.0114
  660.0000      0.0113
  661.0000      0.0113
  662.0000      0.0113
  663.0000      0.0113
  664.0000      0.0113
  665.0000      0.0113
  666.0000      0.0114
  667.0000      0.0115
  668.0000      0.0115
  669.0000      0.0116
  670.0000      0.0116
  671.0000      0.0116
  672.0000      0.0118
  673.0000      0.0118
  674.0000      0.0118
  675.0000      0.0118
  676.0000      0.0118
  677.0000      0.0118
  678.0000      0.0119
  679.0000      0.0121
  680.0000      0.0123
  681.0000      0.0124
  682.0000      0.0126
  683.0000      0.0128
  684.0000      0.0129
  685.0000      0.0130
  686.0000      0.0131
  687.0000      0.0130
  688.0000      0.0129
  689.0000      0.0128
  690.0000      0.0127
  691.0000      0.0125
  692.0000      0.0123
  693.0000      0.0122
  694.0000      0.0120
  695.0000      0.0118
  696.0000      0.0117
  697.0000      0.0115
  698.0000      0.0115
  699.0000      0.0115
  700.0000      0.0114
  701.0000      0.0113
  702.0000      0.0111
  703.0000      0.0109
  704.0000      0.0108
  705.0000      0.0106
  706.0000      0.0105
  707.0000      0.0103
  708.0000      0.0101
  709.0000      0.0101
  710.0000      0.0101
  711.0000      0.0101
  712.0000      0.0101
  713.0000      0.0101
  714.0000      0.0101
  715.0000      0.0101
  716.0000      0.0100
  717.0000      0.0100
  718.0000      0.0099
  719.0000      0.0099
  720.0000      0.0098
  721.0000      0.0097
  722.0000      0.0095
  723.0000      0.0095
  724.0000      0.0094
  725.0000      0.0092
  726.0000      0.0092
  727.0000      0.0090
  728.0000      0.0089
  729.0000      0.0089
  730.0000      0.0088
  731.0000      0.0088
  732.0000      0.0086
  733.0000      0.0085
  734.0000      0.0085
  735.0000      0.0083
  736.0000      0.0088
  737.0000      0.0088
  738.0000      0.0088
  739.0000      0.0089
  740.0000      0.0090
  741.0000      0.0090
  742.0000      0.0091
  743.0000      0.0092
  744.0000      0.0093
  745.0000      0.0094
  746.0000      0.0095
  747.0000      0.0096
  748.0000      0.0097
  749.0000      0.0099
  750.0000      0.0100
  751.0000      0.0100
  752.0000      0.0102
  753.0000      0.0103
  754.0000      0.0103
  755.0000      0.0103
  756.0000      0.0103
  757.0000      0.0104
  758.0000      0.0104
  759.0000      0.0104
  760.0000      0.0103
  761.0000      0.0103
  762.0000      0.0102
  763.0000      0.0100
  764.0000      0.0100
  765.0000      0.0099
  766.0000      0.0097
  767.0000      0.0096
  768.0000      0.0095
  769.0000      0.0094
  770.0000      0.0095
  771.0000      0.0094
  772.0000      0.0094
  773.0000      0.0094
  774.0000      0.0093
  775.0000      0.0092
  776.0000      0.0092
  777.0000      0.0091
  778.0000      0.0089
  779.0000      0.0089
  780.0000      0.0088
  781.0000      0.0088
  782.0000      0.0087
  783.0000      0.0087
  784.0000      0.0087
  785.0000      0.0086
  786.0000      0.0085
  787.0000      0.0085
  788.0000      0.0086
  789.0000      0.0085
  790.0000      0.0085
  791.0000      0.0084
  792.0000      0.0083
  793.0000      0.0082
  794.0000      0.0082
  795.0000      0.0081
  796.0000      0.0080
  797.0000      0.0079
  798.0000      0.0078
  799.0000      0.0077
  800.0000      0.0076
