Start Wavelength:    200.0000
End Wavelength:    800.0000
Read Mode:  ABS
Read Average:      0.1000
Nanometer Interval:      1.0000
Time:      0.0000

  200.0000      1.1341
  201.0000      1.0808
  202.0000      1.0693
  203.0000      1.0530
  204.0000      1.0245
  205.0000      0.9919
  206.0000      0.9759
  207.0000      0.9534
  208.0000      0.9279
  209.0000      0.8974
  210.0000      0.8666
  211.0000      0.8424
  212.0000      0.8100
  213.0000      0.7738
  214.0000      0.7412
  215.0000      0.7071
  216.0000      0.6767
  217.0000      0.6428
  218.0000      0.6096
  219.0000      0.5792
  220.0000      0.5508
  221.0000      0.5221
  222.0000      0.4963
  223.0000      0.4711
  224.0000      0.4484
  225.0000      0.4264
  226.0000      0.4087
  227.0000      0.3923
  228.0000      0.3751
  229.0000      0.3602
  230.0000      0.3479
  231.0000      0.3366
  232.0000      0.3257
  233.0000      0.3153
  234.0000      0.3070
  235.0000      0.2996
  236.0000      0.2924
  237.0000      0.2858
  238.0000      0.2804
  239.0000      0.2752
  240.0000      0.2707
  241.0000      0.2661
  242.0000      0.2619
  243.0000      0.2584
  244.0000      0.2553
  245.0000      0.2521
  246.0000      0.2493
  247.0000      0.2474
  248.0000      0.2443
  249.0000      0.2420
  250.0000      0.2405
  251.0000      0.2383
  252.0000      0.2363
  253.0000      0.2347
  254.0000      0.2323
  255.0000      0.2312
  256.0000      0.2295
  257.0000      0.2282
  258.0000      0.2259
  259.0000      0.2245
  260.0000      0.2224
  261.0000      0.2209
  262.0000      0.2203
  263.0000      0.2183
  264.0000      0.2158
  265.0000      0.2145
  266.0000      0.2126
  267.0000      0.2112
  268.0000      0.2094
  269.0000      0.2067
  270.0000      0.2050
  271.0000      0.2037
  272.0000      0.2019
  273.0000      0.1993
  274.0000      0.1975
  275.0000      0.1956
  276.0000      0.1936
  277.0000      0.1916
  278.0000      0.1893
  279.0000      0.1869
  280.0000      0.1855
  281.0000      0.1827
  282.0000      0.1802
  283.0000      0.1789
  284.0000      0.1766
  285.0000      0.1736
  286.0000      0.1719
  287.0000      0.1697
  288.0000      0.1669
  289.0000      0.1652
  290.0000      0.1626
  291.0000      0.1602
  292.0000      0.1579
  293.0000      0.1567
  294.0000      0.1536
  295.0000      0.1514
  296.0000      0.1496
  297.0000      0.1474
  298.0000      0.1454
  299.0000      0.1440
  300.0000      0.1417
  301.0000      0.1387
  302.0000      0.1379
  303.0000      0.1369
  304.0000      0.1349
  305.0000      0.1325
  306.0000      0.1308
  307.0000      0.1298
  308.0000      0.1279
  309.0000      0.1265
  310.0000      0.1246
  311.0000      0.1225
  312.0000      0.1223
  313.0000      0.1209
  314.0000      0.1195
  315.0000      0.1172
  316.0000      0.1153
  317.0000      0.1141
  318.0000      0.1134
  319.0000      0.1119
  320.0000      0.1106
  321.0000      0.1104
  322.0000      0.1069
  323.0000      0.1057
  324.0000      0.1056
  325.0000      0.1043
  326.0000      0.1021
  327.0000      0.1008
  328.0000      0.1000
  329.0000      0.0987
  330.0000      0.0977
  331.0000      0.0967
  332.0000      0.0953
  333.0000      0.0946
  334.0000      0.0939
  335.0000      0.0922
  336.0000      0.0907
  337.0000      0.0897
  338.0000      0.0892
  339.0000      0.0880
  340.0000      0.0872
  341.0000      0.0864
  342.0000      0.0851
  343.0000      0.0841
  344.0000      0.0835
  345.0000      0.0825
  346.0000      0.0810
  347.0000      0.0808
  348.0000      0.0802
  349.0000      0.0791
  350.0000      0.0780
  351.0000      0.0772
  352.0000      0.0770
  353.0000      0.0761
  354.0000      0.0750
  355.0000      0.0746
  356.0000      0.0739
  357.0000      0.0702
  358.0000      0.0693
  359.0000      0.0719
  360.0000      0.0747
  361.0000      0.0707
  362.0000      0.0661
  363.0000      0.0683
  364.0000      0.0688
  365.0000      0.0677
  366.0000      0.0660
  367.0000      0.0660
  368.0000      0.0649
  369.0000      0.0647
  370.0000      0.0649
  371.0000      0.0631
  372.0000      0.0624
  373.0000      0.0615
  374.0000      0.0620
  375.0000      0.0612
  376.0000      0.0594
  377.0000      0.0601
  378.0000      0.0606
  379.0000      0.0579
  380.0000      0.0573
  381.0000      0.0570
  382.0000      0.0572
  383.0000      0.0565
  384.0000      0.0562
  385.0000      0.0567
  386.0000      0.0539
  387.0000      0.0536
  388.0000      0.0540
  389.0000      0.0546
  390.0000      0.0531
  391.0000      0.0524
  392.0000      0.0532
  393.0000      0.0513
  394.0000      0.0515
  395.0000      0.0508
  396.0000      0.0508
  397.0000      0.0509
  398.0000      0.0495
  399.0000      0.0495
  400.0000      0.0487
  401.0000      0.0486
  402.0000      0.0484
  403.0000      0.0483
  404.0000      0.0473
  405.0000      0.0470
  406.0000      0.0476
  407.0000      0.0467
  408.0000      0.0462
  409.0000      0.0463
  410.0000      0.0459
  411.0000      0.0452
  412.0000      0.0450
  413.0000      0.0453
  414.0000      0.0449
  415.0000      0.0448
  416.0000      0.0440
  417.0000      0.0439
  418.0000      0.0436
  419.0000      0.0437
  420.0000      0.0434
  421.0000      0.0434
  422.0000      0.0432
  423.0000      0.0433
  424.0000      0.0431
  425.0000      0.0428
  426.0000      0.0426
  427.0000      0.0425
  428.0000      0.0425
  429.0000      0.0424
  430.0000      0.0423
  431.0000      0.0422
  432.0000      0.0422
  433.0000      0.0421
  434.0000      0.0421
  435.0000      0.0420
  436.0000      0.0420
  437.0000      0.0421
  438.0000      0.0419
  439.0000      0.0418
  440.0000      0.0416
  441.0000      0.0417
  442.0000      0.0417
  443.0000      0.0417
  444.0000      0.0415
  445.0000      0.0414
  446.0000      0.0415
  447.0000      0.0414
  448.0000      0.0415
  449.0000      0.0414
  450.0000      0.0415
  451.0000      0.0415
  452.0000      0.0416
  453.0000      0.0415
  454.0000      0.0414
  455.0000      0.0416
  456.0000      0.0418
  457.0000      0.0421
  458.0000      0.0423
  459.0000      0.0423
  460.0000      0.0426
  461.0000      0.0427
  462.0000      0.0429
  463.0000      0.0431
  464.0000      0.0433
  465.0000      0.0435
  466.0000      0.0437
  467.0000      0.0439
  468.0000      0.0440
  469.0000      0.0441
  470.0000      0.0442
  471.0000      0.0445
  472.0000      0.0446
  473.0000      0.0447
  474.0000      0.0447
  475.0000      0.0448
  476.0000      0.0449
  477.0000      0.0450
  478.0000      0.0451
  479.0000      0.0452
  480.0000      0.0453
  481.0000      0.0454
  482.0000      0.0455
  483.0000      0.0456
  484.0000      0.0456
  485.0000      0.0457
  486.0000      0.0459
  487.0000      0.0460
  488.0000      0.0460
  489.0000      0.0460
  490.0000      0.0461
  491.0000      0.0462
  492.0000      0.0463
  493.0000      0.0463
  494.0000      0.0464
  495.0000      0.0465
  496.0000      0.0465
  497.0000      0.0465
  498.0000      0.0466
  499.0000      0.0468
  500.0000      0.0469
  501.0000      0.0470
  502.0000      0.0471
  503.0000      0.0472
  504.0000      0.0473
  505.0000      0.0474
  506.0000      0.0475
  507.0000      0.0475
  508.0000      0.0476
  509.0000      0.0477
  510.0000      0.0478
  511.0000      0.0479
  512.0000      0.0480
  513.0000      0.0480
  514.0000      0.0481
  515.0000      0.0481
  516.0000      0.0482
  517.0000      0.0483
  518.0000      0.0485
  519.0000      0.0485
  520.0000      0.0486
  521.0000      0.0487
  522.0000      0.0488
  523.0000      0.0489
  524.0000      0.0490
  525.0000      0.0491
  526.0000      0.0492
  527.0000      0.0493
  528.0000      0.0494
  529.0000      0.0495
  530.0000      0.0496
  531.0000      0.0496
  532.0000      0.0497
  533.0000      0.0498
  534.0000      0.0499
  535.0000      0.0500
  536.0000      0.0501
  537.0000      0.0502
  538.0000      0.0503
  539.0000      0.0504
  540.0000      0.0504
  541.0000      0.0505
  542.0000      0.0505
  543.0000      0.0506
  544.0000      0.0507
  545.0000      0.0508
  546.0000      0.0509
  547.0000      0.0510
  548.0000      0.0510
  549.0000      0.0510
  550.0000      0.0511
  551.0000      0.0512
  552.0000      0.0513
  553.0000      0.0514
  554.0000      0.0515
  555.0000      0.0517
  556.0000      0.0519
  557.0000      0.0576
  558.0000      0.0575
  559.0000      0.0575
  560.0000      0.0575
  561.0000      0.0574
  562.0000      0.0574
  563.0000      0.0573
  564.0000      0.0572
  565.0000      0.0571
  566.0000      0.0571
  567.0000      0.0570
  568.0000      0.0569
  569.0000      0.0569
  570.0000      0.0569
  571.0000      0.0569
  572.0000      0.0569
  573.0000      0.0569
  574.0000      0.0569
  575.0000      0.0570
  576.0000      0.0570
  577.0000      0.0570
  578.0000      0.0569
  579.0000      0.0569
  580.0000      0.0568
  581.0000      0.0568
  582.0000      0.0568
  583.0000      0.0568
  584.0000      0.0568
  585.0000      0.0567
  586.0000      0.0566
  587.0000      0.0566
  588.0000      0.0566
  589.0000      0.0566
  590.0000      0.0565
  591.0000      0.0564
  592.0000      0.0564
  593.0000      0.0563
  594.0000      0.0563
  595.0000      0.0563
  596.0000      0.0562
  597.0000      0.0562
  598.0000      0.0561
  599.0000      0.0560
  600.0000      0.0559
  601.0000      0.0558
  602.0000      0.0557
  603.0000      0.0556
  604.0000      0.0555
  605.0000      0.0554
  606.0000      0.0553
  607.0000      0.0552
  608.0000      0.0550
  609.0000      0.0549
  610.0000      0.0549
  611.0000      0.0548
  612.0000      0.0547
  613.0000      0.0545
  614.0000      0.0545
  615.0000      0.0544
  616.0000      0.0543
  617.0000      0.0542
  618.0000      0.0541
  619.0000      0.0542
  620.0000      0.0541
  621.0000      0.0540
  622.0000      0.0540
  623.0000      0.0539
  624.0000      0.0539
  625.0000      0.0538
  626.0000      0.0538
  627.0000      0.0537
  628.0000      0.0537
  629.0000      0.0536
  630.0000      0.0535
  631.0000      0.0534
  632.0000      0.0533
  633.0000      0.0532
  634.0000      0.0530
  635.0000      0.0529
  636.0000      0.0528
  637.0000      0.0527
  638.0000      0.0526
  639.0000      0.0525
  640.0000      0.0524
  641.0000      0.0523
  642.0000      0.0522
  643.0000      0.0521
  644.0000      0.0520
  645.0000      0.0519
  646.0000      0.0518
  647.0000      0.0517
  648.0000      0.0516
  649.0000      0.0515
  650.0000      0.0513
  651.0000      0.0512
  652.0000      0.0510
  653.0000      0.0508
  654.0000      0.0507
  655.0000      0.0505
  656.0000      0.0504
  657.0000      0.0502
  658.0000      0.0501
  659.0000      0.0499
  660.0000      0.0498
  661.0000      0.0497
  662.0000      0.0496
  663.0000      0.0495
  664.0000      0.0494
  665.0000      0.0493
  666.0000      0.0493
  667.0000      0.0492
  668.0000      0.0491
  669.0000      0.0490
  670.0000      0.0489
  671.0000      0.0487
  672.0000      0.0486
  673.0000      0.0484
  674.0000      0.0482
  675.0000      0.0481
  676.0000      0.0478
  677.0000      0.0476
  678.0000      0.0475
  679.0000      0.0473
  680.0000      0.0471
  681.0000      0.0470
  682.0000      0.0468
  683.0000      0.0466
  684.0000      0.0465
  685.0000      0.0463
  686.0000      0.0461
  687.0000      0.0458
  688.0000      0.0457
  689.0000      0.0455
  690.0000      0.0453
  691.0000      0.0451
  692.0000      0.0449
  693.0000      0.0447
  694.0000      0.0445
  695.0000      0.0444
  696.0000      0.0442
  697.0000      0.0440
  698.0000      0.0439
  699.0000      0.0437
  700.0000      0.0435
  701.0000      0.0433
  702.0000      0.0432
  703.0000      0.0430
  704.0000      0.0428
  705.0000      0.0426
  706.0000      0.0424
  707.0000      0.0422
  708.0000      0.0420
  709.0000      0.0418
  710.0000      0.0417
  711.0000      0.0415
  712.0000      0.0414
  713.0000      0.0412
  714.0000      0.0409
  715.0000      0.0408
  716.0000      0.0406
  717.0000      0.0405
  718.0000      0.0403
  719.0000      0.0401
  720.0000      0.0399
  721.0000      0.0398
  722.0000      0.0396
  723.0000      0.0394
  724.0000      0.0393
  725.0000      0.0391
  726.0000      0.0388
  727.0000      0.0386
  728.0000      0.0384
  729.0000      0.0382
  730.0000      0.0379
  731.0000      0.0376
  732.0000      0.0374
  733.0000      0.0371
  734.0000      0.0368
  735.0000      0.0366
  736.0000      0.0337
  737.0000      0.0335
  738.0000      0.0333
  739.0000      0.0331
  740.0000      0.0329
  741.0000      0.0327
  742.0000      0.0325
  743.0000      0.0323
  744.0000      0.0321
  745.0000      0.0319
  746.0000      0.0317
  747.0000      0.0316
  748.0000      0.0314
  749.0000      0.0312
  750.0000      0.0310
  751.0000      0.0308
  752.0000      0.0307
  753.0000      0.0305
  754.0000      0.0304
  755.0000      0.0302
  756.0000      0.0300
  757.0000      0.0298
  758.0000      0.0297
  759.0000      0.0295
  760.0000      0.0293
  761.0000      0.0292
  762.0000      0.0290
  763.0000      0.0288
  764.0000      0.0287
  765.0000      0.0285
  766.0000      0.0284
  767.0000      0.0282
  768.0000      0.0280
  769.0000      0.0279
  770.0000      0.0278
  771.0000      0.0276
  772.0000      0.0274
  773.0000      0.0273
  774.0000      0.0271
  775.0000      0.0270
  776.0000      0.0268
  777.0000      0.0267
  778.0000      0.0265
  779.0000      0.0263
  780.0000      0.0262
  781.0000      0.0261
  782.0000      0.0259
  783.0000      0.0257
  784.0000      0.0256
  785.0000      0.0254
  786.0000      0.0252
  787.0000      0.0250
  788.0000      0.0248
  789.0000      0.0246
  790.0000      0.0244
  791.0000      0.0242
  792.0000      0.0239
  793.0000      0.0238
  794.0000      0.0236
  795.0000      0.0234
  796.0000      0.0233
  797.0000      0.0231
  798.0000      0.0228
  799.0000      0.0227
  800.0000      0.0224
