Start Wavelength:    200.0000
End Wavelength:    800.0000
Read Mode:  ABS
Read Average:      0.1000
Nanometer Interval:      1.0000
Time:      0.0000

  200.0000      0.6970
  201.0000      0.6418
  202.0000      0.6140
  203.0000      0.5892
  204.0000      0.5646
  205.0000      0.5443
  206.0000      0.5318
  207.0000      0.5159
  208.0000      0.5016
  209.0000      0.4863
  210.0000      0.4743
  211.0000      0.4616
  212.0000      0.4516
  213.0000      0.4379
  214.0000      0.4263
  215.0000      0.4167
  216.0000      0.4064
  217.0000      0.3951
  218.0000      0.3854
  219.0000      0.3772
  220.0000      0.3689
  221.0000      0.3600
  222.0000      0.3525
  223.0000      0.3448
  224.0000      0.3378
  225.0000      0.3307
  226.0000      0.3243
  227.0000      0.3180
  228.0000      0.3112
  229.0000      0.3050
  230.0000      0.2989
  231.0000      0.2928
  232.0000      0.2880
  233.0000      0.2821
  234.0000      0.2761
  235.0000      0.2716
  236.0000      0.2678
  237.0000      0.2629
  238.0000      0.2589
  239.0000      0.2552
  240.0000      0.2519
  241.0000      0.2480
  242.0000      0.2452
  243.0000      0.2412
  244.0000      0.2391
  245.0000      0.2365
  246.0000      0.2341
  247.0000      0.2317
  248.0000      0.2293
  249.0000      0.2274
  250.0000      0.2255
  251.0000      0.2239
  252.0000      0.2222
  253.0000      0.2206
  254.0000      0.2190
  255.0000      0.2179
  256.0000      0.2162
  257.0000      0.2147
  258.0000      0.2132
  259.0000      0.2115
  260.0000      0.2102
  261.0000      0.2086
  262.0000      0.2079
  263.0000      0.2058
  264.0000      0.2035
  265.0000      0.2033
  266.0000      0.2014
  267.0000      0.1992
  268.0000      0.1971
  269.0000      0.1954
  270.0000      0.1937
  271.0000      0.1911
  272.0000      0.1893
  273.0000      0.1866
  274.0000      0.1845
  275.0000      0.1826
  276.0000      0.1797
  277.0000      0.1772
  278.0000      0.1751
  279.0000      0.1731
  280.0000      0.1700
  281.0000      0.1673
  282.0000      0.1653
  283.0000      0.1630
  284.0000      0.1591
  285.0000      0.1567
  286.0000      0.1545
  287.0000      0.1516
  288.0000      0.1488
  289.0000      0.1463
  290.0000      0.1433
  291.0000      0.1408
  292.0000      0.1380
  293.0000      0.1357
  294.0000      0.1328
  295.0000      0.1309
  296.0000      0.1285
  297.0000      0.1256
  298.0000      0.1237
  299.0000      0.1225
  300.0000      0.1195
  301.0000      0.1168
  302.0000      0.1162
  303.0000      0.1149
  304.0000      0.1127
  305.0000      0.1099
  306.0000      0.1091
  307.0000      0.1072
  308.0000      0.1061
  309.0000      0.1049
  310.0000      0.1028
  311.0000      0.1012
  312.0000      0.1008
  313.0000      0.0989
  314.0000      0.0975
  315.0000      0.0966
  316.0000      0.0953
  317.0000      0.0937
  318.0000      0.0921
  319.0000      0.0921
  320.0000      0.0910
  321.0000      0.0905
  322.0000      0.0882
  323.0000      0.0872
  324.0000      0.0866
  325.0000      0.0846
  326.0000      0.0826
  327.0000      0.0817
  328.0000      0.0807
  329.0000      0.0791
  330.0000      0.0784
  331.0000      0.0771
  332.0000      0.0757
  333.0000      0.0750
  334.0000      0.0745
  335.0000      0.0730
  336.0000      0.0717
  337.0000      0.0709
  338.0000      0.0701
  339.0000      0.0688
  340.0000      0.0690
  341.0000      0.0679
  342.0000      0.0661
  343.0000      0.0657
  344.0000      0.0650
  345.0000      0.0641
  346.0000      0.0627
  347.0000      0.0622
  348.0000      0.0614
  349.0000      0.0607
  350.0000      0.0596
  351.0000      0.0590
  352.0000      0.0583
  353.0000      0.0579
  354.0000      0.0572
  355.0000      0.0562
  356.0000      0.0558
  357.0000      0.0535
  358.0000      0.0543
  359.0000      0.0554
  360.0000      0.0552
  361.0000      0.0530
  362.0000      0.0512
  363.0000      0.0532
  364.0000      0.0510
  365.0000      0.0502
  366.0000      0.0494
  367.0000      0.0498
  368.0000      0.0485
  369.0000      0.0469
  370.0000      0.0482
  371.0000      0.0476
  372.0000      0.0471
  373.0000      0.0458
  374.0000      0.0457
  375.0000      0.0444
  376.0000      0.0443
  377.0000      0.0446
  378.0000      0.0439
  379.0000      0.0419
  380.0000      0.0415
  381.0000      0.0418
  382.0000      0.0407
  383.0000      0.0411
  384.0000      0.0407
  385.0000      0.0398
  386.0000      0.0386
  387.0000      0.0381
  388.0000      0.0395
  389.0000      0.0386
  390.0000      0.0375
  391.0000      0.0382
  392.0000      0.0376
  393.0000      0.0368
  394.0000      0.0360
  395.0000      0.0367
  396.0000      0.0363
  397.0000      0.0364
  398.0000      0.0348
  399.0000      0.0346
  400.0000      0.0339
  401.0000      0.0342
  402.0000      0.0341
  403.0000      0.0337
  404.0000      0.0324
  405.0000      0.0329
  406.0000      0.0327
  407.0000      0.0324
  408.0000      0.0318
  409.0000      0.0322
  410.0000      0.0317
  411.0000      0.0313
  412.0000      0.0309
  413.0000      0.0309
  414.0000      0.0305
  415.0000      0.0300
  416.0000      0.0314
  417.0000      0.0312
  418.0000      0.0308
  419.0000      0.0307
  420.0000      0.0304
  421.0000      0.0302
  422.0000      0.0298
  423.0000      0.0296
  424.0000      0.0294
  425.0000      0.0289
  426.0000      0.0287
  427.0000      0.0284
  428.0000      0.0283
  429.0000      0.0280
  430.0000      0.0278
  431.0000      0.0276
  432.0000      0.0275
  433.0000      0.0274
  434.0000      0.0273
  435.0000      0.0271
  436.0000      0.0269
  437.0000      0.0268
  438.0000      0.0265
  439.0000      0.0262
  440.0000      0.0259
  441.0000      0.0257
  442.0000      0.0254
  443.0000      0.0251
  444.0000      0.0249
  445.0000      0.0247
  446.0000      0.0245
  447.0000      0.0241
  448.0000      0.0238
  449.0000      0.0235
  450.0000      0.0231
  451.0000      0.0228
  452.0000      0.0226
  453.0000      0.0224
  454.0000      0.0222
  455.0000      0.0220
  456.0000      0.0219
  457.0000      0.0217
  458.0000      0.0215
  459.0000      0.0212
  460.0000      0.0211
  461.0000      0.0210
  462.0000      0.0209
  463.0000      0.0209
  464.0000      0.0209
  465.0000      0.0208
  466.0000      0.0207
  467.0000      0.0207
  468.0000      0.0206
  469.0000      0.0205
  470.0000      0.0203
  471.0000      0.0202
  472.0000      0.0201
  473.0000      0.0199
  474.0000      0.0197
  475.0000      0.0195
  476.0000      0.0193
  477.0000      0.0193
  478.0000      0.0192
  479.0000      0.0191
  480.0000      0.0190
  481.0000      0.0190
  482.0000      0.0190
  483.0000      0.0189
  484.0000      0.0188
  485.0000      0.0187
  486.0000      0.0186
  487.0000      0.0184
  488.0000      0.0182
  489.0000      0.0179
  490.0000      0.0178
  491.0000      0.0176
  492.0000      0.0175
  493.0000      0.0174
  494.0000      0.0173
  495.0000      0.0173
  496.0000      0.0172
  497.0000      0.0171
  498.0000      0.0170
  499.0000      0.0169
  500.0000      0.0168
  501.0000      0.0167
  502.0000      0.0166
  503.0000      0.0166
  504.0000      0.0164
  505.0000      0.0163
  506.0000      0.0163
  507.0000      0.0161
  508.0000      0.0159
  509.0000      0.0157
  510.0000      0.0156
  511.0000      0.0155
  512.0000      0.0153
  513.0000      0.0151
  514.0000      0.0149
  515.0000      0.0147
  516.0000      0.0145
  517.0000      0.0143
  518.0000      0.0142
  519.0000      0.0140
  520.0000      0.0139
  521.0000      0.0137
  522.0000      0.0136
  523.0000      0.0135
  524.0000      0.0134
  525.0000      0.0134
  526.0000      0.0134
  527.0000      0.0134
  528.0000      0.0133
  529.0000      0.0133
  530.0000      0.0133
  531.0000      0.0133
  532.0000      0.0132
  533.0000      0.0131
  534.0000      0.0132
  535.0000      0.0132
  536.0000      0.0133
  537.0000      0.0133
  538.0000      0.0135
  539.0000      0.0135
  540.0000      0.0135
  541.0000      0.0136
  542.0000      0.0137
  543.0000      0.0138
  544.0000      0.0137
  545.0000      0.0137
  546.0000      0.0137
  547.0000      0.0135
  548.0000      0.0134
  549.0000      0.0133
  550.0000      0.0132
  551.0000      0.0131
  552.0000      0.0131
  553.0000      0.0131
  554.0000      0.0132
  555.0000      0.0132
  556.0000      0.0133
  557.0000      0.0122
  558.0000      0.0121
  559.0000      0.0121
  560.0000      0.0121
  561.0000      0.0120
  562.0000      0.0120
  563.0000      0.0119
  564.0000      0.0119
  565.0000      0.0118
  566.0000      0.0117
  567.0000      0.0117
  568.0000      0.0116
  569.0000      0.0117
  570.0000      0.0117
  571.0000      0.0118
  572.0000      0.0118
  573.0000      0.0119
  574.0000      0.0120
  575.0000      0.0121
  576.0000      0.0122
  577.0000      0.0122
  578.0000      0.0122
  579.0000      0.0123
  580.0000      0.0122
  581.0000      0.0122
  582.0000      0.0122
  583.0000      0.0122
  584.0000      0.0122
  585.0000      0.0123
  586.0000      0.0123
  587.0000      0.0123
  588.0000      0.0123
  589.0000      0.0124
  590.0000      0.0124
  591.0000      0.0125
  592.0000      0.0125
  593.0000      0.0125
  594.0000      0.0125
  595.0000      0.0126
  596.0000      0.0125
  597.0000      0.0125
  598.0000      0.0126
  599.0000      0.0125
  600.0000      0.0126
  601.0000      0.0127
  602.0000      0.0127
  603.0000      0.0126
  604.0000      0.0126
  605.0000      0.0127
  606.0000      0.0127
  607.0000      0.0126
  608.0000      0.0125
  609.0000      0.0124
  610.0000      0.0123
  611.0000      0.0121
  612.0000      0.0121
  613.0000      0.0120
  614.0000      0.0120
  615.0000      0.0119
  616.0000      0.0118
  617.0000      0.0118
  618.0000      0.0117
  619.0000      0.0117
  620.0000      0.0117
  621.0000      0.0117
  622.0000      0.0118
  623.0000      0.0118
  624.0000      0.0118
  625.0000      0.0118
  626.0000      0.0118
  627.0000      0.0118
  628.0000      0.0117
  629.0000      0.0117
  630.0000      0.0115
  631.0000      0.0114
  632.0000      0.0111
  633.0000      0.0108
  634.0000      0.0106
  635.0000      0.0104
  636.0000      0.0103
  637.0000      0.0103
  638.0000      0.0102
  639.0000      0.0101
  640.0000      0.0101
  641.0000      0.0100
  642.0000      0.0099
  643.0000      0.0098
  644.0000      0.0097
  645.0000      0.0096
  646.0000      0.0095
  647.0000      0.0094
  648.0000      0.0093
  649.0000      0.0092
  650.0000      0.0092
  651.0000      0.0091
  652.0000      0.0091
  653.0000      0.0091
  654.0000      0.0090
  655.0000      0.0090
  656.0000      0.0090
  657.0000      0.0089
  658.0000      0.0089
  659.0000      0.0090
  660.0000      0.0089
  661.0000      0.0089
  662.0000      0.0089
  663.0000      0.0090
  664.0000      0.0091
  665.0000      0.0091
  666.0000      0.0092
  667.0000      0.0093
  668.0000      0.0093
  669.0000      0.0093
  670.0000      0.0093
  671.0000      0.0092
  672.0000      0.0092
  673.0000      0.0091
  674.0000      0.0091
  675.0000      0.0091
  676.0000      0.0090
  677.0000      0.0091
  678.0000      0.0092
  679.0000      0.0092
  680.0000      0.0093
  681.0000      0.0094
  682.0000      0.0094
  683.0000      0.0094
  684.0000      0.0094
  685.0000      0.0093
  686.0000      0.0093
  687.0000      0.0092
  688.0000      0.0092
  689.0000      0.0091
  690.0000      0.0091
  691.0000      0.0090
  692.0000      0.0089
  693.0000      0.0088
  694.0000      0.0089
  695.0000      0.0089
  696.0000      0.0089
  697.0000      0.0089
  698.0000      0.0088
  699.0000      0.0088
  700.0000      0.0088
  701.0000      0.0087
  702.0000      0.0087
  703.0000      0.0086
  704.0000      0.0085
  705.0000      0.0084
  706.0000      0.0084
  707.0000      0.0084
  708.0000      0.0084
  709.0000      0.0084
  710.0000      0.0083
  711.0000      0.0083
  712.0000      0.0083
  713.0000      0.0082
  714.0000      0.0081
  715.0000      0.0081
  716.0000      0.0080
  717.0000      0.0079
  718.0000      0.0078
  719.0000      0.0077
  720.0000      0.0076
  721.0000      0.0076
  722.0000      0.0076
  723.0000      0.0075
  724.0000      0.0076
  725.0000      0.0075
  726.0000      0.0076
  727.0000      0.0075
  728.0000      0.0075
  729.0000      0.0074
  730.0000      0.0074
  731.0000      0.0073
  732.0000      0.0073
  733.0000      0.0073
  734.0000      0.0072
  735.0000      0.0072
  736.0000      0.0085
  737.0000      0.0086
  738.0000      0.0086
  739.0000      0.0085
  740.0000      0.0085
  741.0000      0.0085
  742.0000      0.0085
  743.0000      0.0085
  744.0000      0.0084
  745.0000      0.0085
  746.0000      0.0085
  747.0000      0.0085
  748.0000      0.0084
  749.0000      0.0084
  750.0000      0.0083
  751.0000      0.0082
  752.0000      0.0082
  753.0000      0.0082
  754.0000      0.0081
  755.0000      0.0081
  756.0000      0.0080
  757.0000      0.0080
  758.0000      0.0080
  759.0000      0.0080
  760.0000      0.0079
  761.0000      0.0080
  762.0000      0.0079
  763.0000      0.0079
  764.0000      0.0079
  765.0000      0.0078
  766.0000      0.0079
  767.0000      0.0079
  768.0000      0.0078
  769.0000      0.0078
  770.0000      0.0080
  771.0000      0.0080
  772.0000      0.0080
  773.0000      0.0080
  774.0000      0.0080
  775.0000      0.0080
  776.0000      0.0080
  777.0000      0.0080
  778.0000      0.0080
  779.0000      0.0080
  780.0000      0.0080
  781.0000      0.0081
  782.0000      0.0080
  783.0000      0.0081
  784.0000      0.0080
  785.0000      0.0080
  786.0000      0.0079
  787.0000      0.0079
  788.0000      0.0078
  789.0000      0.0078
  790.0000      0.0078
  791.0000      0.0077
  792.0000      0.0077
  793.0000      0.0076
  794.0000      0.0076
  795.0000      0.0075
  796.0000      0.0075
  797.0000      0.0074
  798.0000      0.0073
  799.0000      0.0072
  800.0000      0.0071
