Start Wavelength:    200.0000
End Wavelength:    800.0000
Read Mode:  ABS
Read Average:      0.1000
Nanometer Interval:      1.0000
Time:      0.0000

  200.0000      1.1731
  201.0000      1.1233
  202.0000      1.1005
  203.0000      1.0810
  204.0000      1.0564
  205.0000      1.0284
  206.0000      1.0063
  207.0000      0.9848
  208.0000      0.9628
  209.0000      0.9284
  210.0000      0.8998
  211.0000      0.8679
  212.0000      0.8364
  213.0000      0.8010
  214.0000      0.7698
  215.0000      0.7366
  216.0000      0.7032
  217.0000      0.6675
  218.0000      0.6363
  219.0000      0.6064
  220.0000      0.5758
  221.0000      0.5448
  222.0000      0.5195
  223.0000      0.4949
  224.0000      0.4721
  225.0000      0.4493
  226.0000      0.4300
  227.0000      0.4122
  228.0000      0.3967
  229.0000      0.3811
  230.0000      0.3676
  231.0000      0.3556
  232.0000      0.3446
  233.0000      0.3342
  234.0000      0.3261
  235.0000      0.3180
  236.0000      0.3106
  237.0000      0.3038
  238.0000      0.2985
  239.0000      0.2927
  240.0000      0.2879
  241.0000      0.2828
  242.0000      0.2783
  243.0000      0.2754
  244.0000      0.2714
  245.0000      0.2679
  246.0000      0.2655
  247.0000      0.2622
  248.0000      0.2599
  249.0000      0.2579
  250.0000      0.2553
  251.0000      0.2536
  252.0000      0.2507
  253.0000      0.2494
  254.0000      0.2472
  255.0000      0.2455
  256.0000      0.2441
  257.0000      0.2419
  258.0000      0.2405
  259.0000      0.2386
  260.0000      0.2370
  261.0000      0.2357
  262.0000      0.2335
  263.0000      0.2314
  264.0000      0.2302
  265.0000      0.2284
  266.0000      0.2272
  267.0000      0.2249
  268.0000      0.2227
  269.0000      0.2208
  270.0000      0.2190
  271.0000      0.2170
  272.0000      0.2148
  273.0000      0.2128
  274.0000      0.2107
  275.0000      0.2088
  276.0000      0.2074
  277.0000      0.2048
  278.0000      0.2022
  279.0000      0.2003
  280.0000      0.1981
  281.0000      0.1957
  282.0000      0.1935
  283.0000      0.1914
  284.0000      0.1884
  285.0000      0.1860
  286.0000      0.1839
  287.0000      0.1807
  288.0000      0.1787
  289.0000      0.1761
  290.0000      0.1734
  291.0000      0.1711
  292.0000      0.1690
  293.0000      0.1668
  294.0000      0.1642
  295.0000      0.1617
  296.0000      0.1598
  297.0000      0.1576
  298.0000      0.1556
  299.0000      0.1534
  300.0000      0.1511
  301.0000      0.1488
  302.0000      0.1478
  303.0000      0.1460
  304.0000      0.1436
  305.0000      0.1421
  306.0000      0.1405
  307.0000      0.1393
  308.0000      0.1377
  309.0000      0.1360
  310.0000      0.1341
  311.0000      0.1323
  312.0000      0.1313
  313.0000      0.1300
  314.0000      0.1277
  315.0000      0.1268
  316.0000      0.1245
  317.0000      0.1231
  318.0000      0.1222
  319.0000      0.1207
  320.0000      0.1194
  321.0000      0.1178
  322.0000      0.1167
  323.0000      0.1142
  324.0000      0.1136
  325.0000      0.1119
  326.0000      0.1107
  327.0000      0.1094
  328.0000      0.1082
  329.0000      0.1069
  330.0000      0.1052
  331.0000      0.1040
  332.0000      0.1031
  333.0000      0.1021
  334.0000      0.1005
  335.0000      0.0994
  336.0000      0.0986
  337.0000      0.0971
  338.0000      0.0961
  339.0000      0.0950
  340.0000      0.0935
  341.0000      0.0928
  342.0000      0.0916
  343.0000      0.0908
  344.0000      0.0893
  345.0000      0.0890
  346.0000      0.0879
  347.0000      0.0870
  348.0000      0.0860
  349.0000      0.0854
  350.0000      0.0843
  351.0000      0.0833
  352.0000      0.0825
  353.0000      0.0817
  354.0000      0.0807
  355.0000      0.0799
  356.0000      0.0796
  357.0000      0.0787
  358.0000      0.0795
  359.0000      0.0786
  360.0000      0.0753
  361.0000      0.0732
  362.0000      0.0732
  363.0000      0.0734
  364.0000      0.0726
  365.0000      0.0729
  366.0000      0.0712
  367.0000      0.0690
  368.0000      0.0700
  369.0000      0.0697
  370.0000      0.0694
  371.0000      0.0669
  372.0000      0.0656
  373.0000      0.0674
  374.0000      0.0660
  375.0000      0.0647
  376.0000      0.0641
  377.0000      0.0634
  378.0000      0.0625
  379.0000      0.0628
  380.0000      0.0620
  381.0000      0.0597
  382.0000      0.0590
  383.0000      0.0596
  384.0000      0.0596
  385.0000      0.0588
  386.0000      0.0583
  387.0000      0.0572
  388.0000      0.0562
  389.0000      0.0566
  390.0000      0.0560
  391.0000      0.0557
  392.0000      0.0541
  393.0000      0.0532
  394.0000      0.0532
  395.0000      0.0534
  396.0000      0.0524
  397.0000      0.0516
  398.0000      0.0505
  399.0000      0.0502
  400.0000      0.0503
  401.0000      0.0500
  402.0000      0.0493
  403.0000      0.0484
  404.0000      0.0479
  405.0000      0.0480
  406.0000      0.0473
  407.0000      0.0469
  408.0000      0.0467
  409.0000      0.0459
  410.0000      0.0455
  411.0000      0.0457
  412.0000      0.0454
  413.0000      0.0449
  414.0000      0.0441
  415.0000      0.0443
  416.0000      0.0435
  417.0000      0.0431
  418.0000      0.0429
  419.0000      0.0425
  420.0000      0.0422
  421.0000      0.0418
  422.0000      0.0415
  423.0000      0.0412
  424.0000      0.0409
  425.0000      0.0407
  426.0000      0.0403
  427.0000      0.0401
  428.0000      0.0397
  429.0000      0.0394
  430.0000      0.0390
  431.0000      0.0388
  432.0000      0.0385
  433.0000      0.0382
  434.0000      0.0380
  435.0000      0.0376
  436.0000      0.0373
  437.0000      0.0371
  438.0000      0.0367
  439.0000      0.0365
  440.0000      0.0363
  441.0000      0.0360
  442.0000      0.0356
  443.0000      0.0354
  444.0000      0.0351
  445.0000      0.0349
  446.0000      0.0345
  447.0000      0.0342
  448.0000      0.0340
  449.0000      0.0337
  450.0000      0.0334
  451.0000      0.0332
  452.0000      0.0329
  453.0000      0.0327
  454.0000      0.0324
  455.0000      0.0322
  456.0000      0.0320
  457.0000      0.0317
  458.0000      0.0314
  459.0000      0.0313
  460.0000      0.0311
  461.0000      0.0309
  462.0000      0.0306
  463.0000      0.0304
  464.0000      0.0302
  465.0000      0.0299
  466.0000      0.0296
  467.0000      0.0294
  468.0000      0.0292
  469.0000      0.0290
  470.0000      0.0287
  471.0000      0.0286
  472.0000      0.0284
  473.0000      0.0283
  474.0000      0.0281
  475.0000      0.0280
  476.0000      0.0278
  477.0000      0.0276
  478.0000      0.0274
  479.0000      0.0272
  480.0000      0.0271
  481.0000      0.0269
  482.0000      0.0268
  483.0000      0.0266
  484.0000      0.0264
  485.0000      0.0263
  486.0000      0.0261
  487.0000      0.0260
  488.0000      0.0258
  489.0000      0.0257
  490.0000      0.0256
  491.0000      0.0254
  492.0000      0.0253
  493.0000      0.0252
  494.0000      0.0251
  495.0000      0.0250
  496.0000      0.0250
  497.0000      0.0249
  498.0000      0.0248
  499.0000      0.0247
  500.0000      0.0247
  501.0000      0.0246
  502.0000      0.0245
  503.0000      0.0244
  504.0000      0.0243
  505.0000      0.0242
  506.0000      0.0241
  507.0000      0.0240
  508.0000      0.0239
  509.0000      0.0237
  510.0000      0.0236
  511.0000      0.0235
  512.0000      0.0234
  513.0000      0.0233
  514.0000      0.0232
  515.0000      0.0231
  516.0000      0.0230
  517.0000      0.0229
  518.0000      0.0228
  519.0000      0.0227
  520.0000      0.0225
  521.0000      0.0225
  522.0000      0.0223
  523.0000      0.0222
  524.0000      0.0221
  525.0000      0.0220
  526.0000      0.0219
  527.0000      0.0218
  528.0000      0.0216
  529.0000      0.0215
  530.0000      0.0213
  531.0000      0.0212
  532.0000      0.0211
  533.0000      0.0210
  534.0000      0.0209
  535.0000      0.0208
  536.0000      0.0207
  537.0000      0.0205
  538.0000      0.0204
  539.0000      0.0203
  540.0000      0.0200
  541.0000      0.0199
  542.0000      0.0197
  543.0000      0.0196
  544.0000      0.0194
  545.0000      0.0193
  546.0000      0.0192
  547.0000      0.0192
  548.0000      0.0191
  549.0000      0.0190
  550.0000      0.0189
  551.0000      0.0189
  552.0000      0.0187
  553.0000      0.0187
  554.0000      0.0185
  555.0000      0.0184
  556.0000      0.0183
  557.0000      0.0186
  558.0000      0.0185
  559.0000      0.0185
  560.0000      0.0184
  561.0000      0.0183
  562.0000      0.0183
  563.0000      0.0183
  564.0000      0.0183
  565.0000      0.0183
  566.0000      0.0182
  567.0000      0.0182
  568.0000      0.0182
  569.0000      0.0182
  570.0000      0.0182
  571.0000      0.0181
  572.0000      0.0181
  573.0000      0.0180
  574.0000      0.0180
  575.0000      0.0180
  576.0000      0.0180
  577.0000      0.0179
  578.0000      0.0179
  579.0000      0.0178
  580.0000      0.0178
  581.0000      0.0178
  582.0000      0.0177
  583.0000      0.0176
  584.0000      0.0176
  585.0000      0.0176
  586.0000      0.0175
  587.0000      0.0175
  588.0000      0.0175
  589.0000      0.0174
  590.0000      0.0174
  591.0000      0.0173
  592.0000      0.0173
  593.0000      0.0172
  594.0000      0.0172
  595.0000      0.0171
  596.0000      0.0170
  597.0000      0.0170
  598.0000      0.0169
  599.0000      0.0168
  600.0000      0.0167
  601.0000      0.0166
  602.0000      0.0165
  603.0000      0.0163
  604.0000      0.0162
  605.0000      0.0161
  606.0000      0.0160
  607.0000      0.0158
  608.0000      0.0157
  609.0000      0.0156
  610.0000      0.0155
  611.0000      0.0155
  612.0000      0.0154
  613.0000      0.0154
  614.0000      0.0153
  615.0000      0.0152
  616.0000      0.0152
  617.0000      0.0152
  618.0000      0.0151
  619.0000      0.0150
  620.0000      0.0151
  621.0000      0.0150
  622.0000      0.0150
  623.0000      0.0150
  624.0000      0.0150
  625.0000      0.0150
  626.0000      0.0149
  627.0000      0.0149
  628.0000      0.0149
  629.0000      0.0148
  630.0000      0.0148
  631.0000      0.0148
  632.0000      0.0147
  633.0000      0.0147
  634.0000      0.0147
  635.0000      0.0147
  636.0000      0.0146
  637.0000      0.0146
  638.0000      0.0146
  639.0000      0.0147
  640.0000      0.0147
  641.0000      0.0146
  642.0000      0.0146
  643.0000      0.0146
  644.0000      0.0146
  645.0000      0.0146
  646.0000      0.0145
  647.0000      0.0145
  648.0000      0.0145
  649.0000      0.0145
  650.0000      0.0145
  651.0000      0.0144
  652.0000      0.0145
  653.0000      0.0145
  654.0000      0.0144
  655.0000      0.0144
  656.0000      0.0143
  657.0000      0.0142
  658.0000      0.0141
  659.0000      0.0140
  660.0000      0.0139
  661.0000      0.0138
  662.0000      0.0137
  663.0000      0.0136
  664.0000      0.0136
  665.0000      0.0136
  666.0000      0.0135
  667.0000      0.0135
  668.0000      0.0134
  669.0000      0.0134
  670.0000      0.0134
  671.0000      0.0134
  672.0000      0.0134
  673.0000      0.0134
  674.0000      0.0134
  675.0000      0.0134
  676.0000      0.0133
  677.0000      0.0133
  678.0000      0.0133
  679.0000      0.0133
  680.0000      0.0133
  681.0000      0.0133
  682.0000      0.0133
  683.0000      0.0133
  684.0000      0.0133
  685.0000      0.0134
  686.0000      0.0134
  687.0000      0.0134
  688.0000      0.0134
  689.0000      0.0134
  690.0000      0.0133
  691.0000      0.0132
  692.0000      0.0131
  693.0000      0.0131
  694.0000      0.0130
  695.0000      0.0129
  696.0000      0.0128
  697.0000      0.0126
  698.0000      0.0126
  699.0000      0.0125
  700.0000      0.0125
  701.0000      0.0124
  702.0000      0.0124
  703.0000      0.0123
  704.0000      0.0122
  705.0000      0.0122
  706.0000      0.0121
  707.0000      0.0120
  708.0000      0.0120
  709.0000      0.0119
  710.0000      0.0119
  711.0000      0.0118
  712.0000      0.0118
  713.0000      0.0117
  714.0000      0.0116
  715.0000      0.0116
  716.0000      0.0115
  717.0000      0.0115
  718.0000      0.0114
  719.0000      0.0113
  720.0000      0.0113
  721.0000      0.0113
  722.0000      0.0112
  723.0000      0.0112
  724.0000      0.0112
  725.0000      0.0111
  726.0000      0.0110
  727.0000      0.0110
  728.0000      0.0110
  729.0000      0.0110
  730.0000      0.0109
  731.0000      0.0109
  732.0000      0.0108
  733.0000      0.0107
  734.0000      0.0107
  735.0000      0.0107
  736.0000      0.0110
  737.0000      0.0110
  738.0000      0.0109
  739.0000      0.0109
  740.0000      0.0109
  741.0000      0.0109
  742.0000      0.0109
  743.0000      0.0109
  744.0000      0.0109
  745.0000      0.0109
  746.0000      0.0109
  747.0000      0.0110
  748.0000      0.0110
  749.0000      0.0110
  750.0000      0.0110
  751.0000      0.0110
  752.0000      0.0111
  753.0000      0.0110
  754.0000      0.0110
  755.0000      0.0110
  756.0000      0.0110
  757.0000      0.0110
  758.0000      0.0110
  759.0000      0.0110
  760.0000      0.0110
  761.0000      0.0110
  762.0000      0.0110
  763.0000      0.0109
  764.0000      0.0109
  765.0000      0.0109
  766.0000      0.0109
  767.0000      0.0108
  768.0000      0.0109
  769.0000      0.0108
  770.0000      0.0108
  771.0000      0.0108
  772.0000      0.0108
  773.0000      0.0108
  774.0000      0.0108
  775.0000      0.0108
  776.0000      0.0108
  777.0000      0.0108
  778.0000      0.0108
  779.0000      0.0108
  780.0000      0.0107
  781.0000      0.0107
  782.0000      0.0107
  783.0000      0.0107
  784.0000      0.0107
  785.0000      0.0107
  786.0000      0.0107
  787.0000      0.0107
  788.0000      0.0107
  789.0000      0.0107
  790.0000      0.0106
  791.0000      0.0107
  792.0000      0.0106
  793.0000      0.0106
  794.0000      0.0106
  795.0000      0.0105
  796.0000      0.0105
  797.0000      0.0105
  798.0000      0.0105
  799.0000      0.0105
  800.0000      0.0104
