Start Wavelength:    200.0000
End Wavelength:    800.0000
Read Mode:  ABS
Read Average:      0.1000
Nanometer Interval:      1.0000
Time:      0.0000

  200.0000      0.6643
  201.0000      0.6207
  202.0000      0.5927
  203.0000      0.5697
  204.0000      0.5517
  205.0000      0.5354
  206.0000      0.5215
  207.0000      0.5050
  208.0000      0.4921
  209.0000      0.4785
  210.0000      0.4664
  211.0000      0.4544
  212.0000      0.4432
  213.0000      0.4289
  214.0000      0.4179
  215.0000      0.4076
  216.0000      0.3971
  217.0000      0.3863
  218.0000      0.3755
  219.0000      0.3668
  220.0000      0.3569
  221.0000      0.3472
  222.0000      0.3398
  223.0000      0.3317
  224.0000      0.3233
  225.0000      0.3153
  226.0000      0.3094
  227.0000      0.3024
  228.0000      0.2969
  229.0000      0.2903
  230.0000      0.2843
  231.0000      0.2788
  232.0000      0.2742
  233.0000      0.2688
  234.0000      0.2641
  235.0000      0.2595
  236.0000      0.2553
  237.0000      0.2513
  238.0000      0.2476
  239.0000      0.2439
  240.0000      0.2404
  241.0000      0.2365
  242.0000      0.2338
  243.0000      0.2314
  244.0000      0.2282
  245.0000      0.2257
  246.0000      0.2239
  247.0000      0.2214
  248.0000      0.2194
  249.0000      0.2182
  250.0000      0.2163
  251.0000      0.2145
  252.0000      0.2129
  253.0000      0.2116
  254.0000      0.2100
  255.0000      0.2091
  256.0000      0.2081
  257.0000      0.2056
  258.0000      0.2047
  259.0000      0.2031
  260.0000      0.2017
  261.0000      0.2003
  262.0000      0.1987
  263.0000      0.1969
  264.0000      0.1955
  265.0000      0.1944
  266.0000      0.1925
  267.0000      0.1907
  268.0000      0.1884
  269.0000      0.1868
  270.0000      0.1841
  271.0000      0.1822
  272.0000      0.1802
  273.0000      0.1777
  274.0000      0.1755
  275.0000      0.1729
  276.0000      0.1712
  277.0000      0.1684
  278.0000      0.1659
  279.0000      0.1642
  280.0000      0.1611
  281.0000      0.1582
  282.0000      0.1570
  283.0000      0.1542
  284.0000      0.1514
  285.0000      0.1490
  286.0000      0.1468
  287.0000      0.1433
  288.0000      0.1414
  289.0000      0.1394
  290.0000      0.1370
  291.0000      0.1341
  292.0000      0.1321
  293.0000      0.1301
  294.0000      0.1282
  295.0000      0.1263
  296.0000      0.1244
  297.0000      0.1219
  298.0000      0.1200
  299.0000      0.1186
  300.0000      0.1165
  301.0000      0.1145
  302.0000      0.1134
  303.0000      0.1112
  304.0000      0.1095
  305.0000      0.1080
  306.0000      0.1066
  307.0000      0.1053
  308.0000      0.1032
  309.0000      0.1018
  310.0000      0.1010
  311.0000      0.0995
  312.0000      0.0983
  313.0000      0.0970
  314.0000      0.0949
  315.0000      0.0940
  316.0000      0.0926
  317.0000      0.0917
  318.0000      0.0902
  319.0000      0.0889
  320.0000      0.0873
  321.0000      0.0870
  322.0000      0.0863
  323.0000      0.0843
  324.0000      0.0837
  325.0000      0.0822
  326.0000      0.0811
  327.0000      0.0803
  328.0000      0.0795
  329.0000      0.0780
  330.0000      0.0769
  331.0000      0.0763
  332.0000      0.0755
  333.0000      0.0746
  334.0000      0.0736
  335.0000      0.0726
  336.0000      0.0722
  337.0000      0.0713
  338.0000      0.0708
  339.0000      0.0700
  340.0000      0.0685
  341.0000      0.0683
  342.0000      0.0675
  343.0000      0.0667
  344.0000      0.0656
  345.0000      0.0657
  346.0000      0.0645
  347.0000      0.0636
  348.0000      0.0632
  349.0000      0.0626
  350.0000      0.0618
  351.0000      0.0609
  352.0000      0.0605
  353.0000      0.0600
  354.0000      0.0593
  355.0000      0.0587
  356.0000      0.0586
  357.0000      0.0583
  358.0000      0.0562
  359.0000      0.0551
  360.0000      0.0536
  361.0000      0.0542
  362.0000      0.0534
  363.0000      0.0543
  364.0000      0.0511
  365.0000      0.0510
  366.0000      0.0500
  367.0000      0.0495
  368.0000      0.0507
  369.0000      0.0485
  370.0000      0.0484
  371.0000      0.0478
  372.0000      0.0466
  373.0000      0.0484
  374.0000      0.0469
  375.0000      0.0459
  376.0000      0.0453
  377.0000      0.0457
  378.0000      0.0451
  379.0000      0.0454
  380.0000      0.0437
  381.0000      0.0429
  382.0000      0.0427
  383.0000      0.0428
  384.0000      0.0437
  385.0000      0.0428
  386.0000      0.0415
  387.0000      0.0417
  388.0000      0.0413
  389.0000      0.0418
  390.0000      0.0414
  391.0000      0.0402
  392.0000      0.0395
  393.0000      0.0398
  394.0000      0.0395
  395.0000      0.0396
  396.0000      0.0387
  397.0000      0.0381
  398.0000      0.0377
  399.0000      0.0374
  400.0000      0.0378
  401.0000      0.0373
  402.0000      0.0364
  403.0000      0.0358
  404.0000      0.0360
  405.0000      0.0362
  406.0000      0.0359
  407.0000      0.0350
  408.0000      0.0344
  409.0000      0.0343
  410.0000      0.0342
  411.0000      0.0348
  412.0000      0.0334
  413.0000      0.0334
  414.0000      0.0329
  415.0000      0.0329
  416.0000      0.0316
  417.0000      0.0312
  418.0000      0.0310
  419.0000      0.0307
  420.0000      0.0307
  421.0000      0.0304
  422.0000      0.0302
  423.0000      0.0299
  424.0000      0.0298
  425.0000      0.0295
  426.0000      0.0294
  427.0000      0.0292
  428.0000      0.0288
  429.0000      0.0285
  430.0000      0.0283
  431.0000      0.0282
  432.0000      0.0280
  433.0000      0.0278
  434.0000      0.0276
  435.0000      0.0272
  436.0000      0.0270
  437.0000      0.0269
  438.0000      0.0268
  439.0000      0.0265
  440.0000      0.0262
  441.0000      0.0259
  442.0000      0.0258
  443.0000      0.0256
  444.0000      0.0254
  445.0000      0.0252
  446.0000      0.0249
  447.0000      0.0247
  448.0000      0.0245
  449.0000      0.0242
  450.0000      0.0238
  451.0000      0.0236
  452.0000      0.0234
  453.0000      0.0232
  454.0000      0.0230
  455.0000      0.0228
  456.0000      0.0227
  457.0000      0.0224
  458.0000      0.0223
  459.0000      0.0223
  460.0000      0.0222
  461.0000      0.0221
  462.0000      0.0219
  463.0000      0.0219
  464.0000      0.0218
  465.0000      0.0217
  466.0000      0.0215
  467.0000      0.0215
  468.0000      0.0214
  469.0000      0.0213
  470.0000      0.0211
  471.0000      0.0210
  472.0000      0.0209
  473.0000      0.0208
  474.0000      0.0207
  475.0000      0.0205
  476.0000      0.0204
  477.0000      0.0203
  478.0000      0.0202
  479.0000      0.0201
  480.0000      0.0201
  481.0000      0.0200
  482.0000      0.0200
  483.0000      0.0200
  484.0000      0.0200
  485.0000      0.0200
  486.0000      0.0200
  487.0000      0.0199
  488.0000      0.0199
  489.0000      0.0199
  490.0000      0.0198
  491.0000      0.0198
  492.0000      0.0197
  493.0000      0.0197
  494.0000      0.0196
  495.0000      0.0196
  496.0000      0.0197
  497.0000      0.0197
  498.0000      0.0196
  499.0000      0.0195
  500.0000      0.0195
  501.0000      0.0194
  502.0000      0.0193
  503.0000      0.0193
  504.0000      0.0192
  505.0000      0.0191
  506.0000      0.0190
  507.0000      0.0189
  508.0000      0.0188
  509.0000      0.0187
  510.0000      0.0186
  511.0000      0.0186
  512.0000      0.0185
  513.0000      0.0183
  514.0000      0.0182
  515.0000      0.0181
  516.0000      0.0179
  517.0000      0.0177
  518.0000      0.0175
  519.0000      0.0173
  520.0000      0.0171
  521.0000      0.0170
  522.0000      0.0169
  523.0000      0.0167
  524.0000      0.0166
  525.0000      0.0165
  526.0000      0.0164
  527.0000      0.0163
  528.0000      0.0162
  529.0000      0.0162
  530.0000      0.0162
  531.0000      0.0162
  532.0000      0.0161
  533.0000      0.0160
  534.0000      0.0159
  535.0000      0.0157
  536.0000      0.0156
  537.0000      0.0154
  538.0000      0.0152
  539.0000      0.0150
  540.0000      0.0148
  541.0000      0.0147
  542.0000      0.0146
  543.0000      0.0144
  544.0000      0.0144
  545.0000      0.0143
  546.0000      0.0143
  547.0000      0.0143
  548.0000      0.0142
  549.0000      0.0142
  550.0000      0.0141
  551.0000      0.0141
  552.0000      0.0140
  553.0000      0.0140
  554.0000      0.0140
  555.0000      0.0139
  556.0000      0.0139
  557.0000      0.0154
  558.0000      0.0153
  559.0000      0.0153
  560.0000      0.0152
  561.0000      0.0151
  562.0000      0.0150
  563.0000      0.0148
  564.0000      0.0147
  565.0000      0.0146
  566.0000      0.0145
  567.0000      0.0145
  568.0000      0.0143
  569.0000      0.0143
  570.0000      0.0142
  571.0000      0.0141
  572.0000      0.0140
  573.0000      0.0138
  574.0000      0.0137
  575.0000      0.0136
  576.0000      0.0135
  577.0000      0.0134
  578.0000      0.0132
  579.0000      0.0130
  580.0000      0.0130
  581.0000      0.0130
  582.0000      0.0130
  583.0000      0.0129
  584.0000      0.0129
  585.0000      0.0130
  586.0000      0.0129
  587.0000      0.0130
  588.0000      0.0130
  589.0000      0.0130
  590.0000      0.0130
  591.0000      0.0130
  592.0000      0.0130
  593.0000      0.0130
  594.0000      0.0129
  595.0000      0.0129
  596.0000      0.0129
  597.0000      0.0130
  598.0000      0.0130
  599.0000      0.0129
  600.0000      0.0129
  601.0000      0.0129
  602.0000      0.0131
  603.0000      0.0132
  604.0000      0.0135
  605.0000      0.0136
  606.0000      0.0136
  607.0000      0.0137
  608.0000      0.0137
  609.0000      0.0137
  610.0000      0.0137
  611.0000      0.0137
  612.0000      0.0137
  613.0000      0.0136
  614.0000      0.0136
  615.0000      0.0135
  616.0000      0.0135
  617.0000      0.0134
  618.0000      0.0133
  619.0000      0.0133
  620.0000      0.0133
  621.0000      0.0133
  622.0000      0.0133
  623.0000      0.0133
  624.0000      0.0133
  625.0000      0.0133
  626.0000      0.0132
  627.0000      0.0132
  628.0000      0.0131
  629.0000      0.0129
  630.0000      0.0128
  631.0000      0.0127
  632.0000      0.0126
  633.0000      0.0124
  634.0000      0.0124
  635.0000      0.0123
  636.0000      0.0121
  637.0000      0.0121
  638.0000      0.0120
  639.0000      0.0120
  640.0000      0.0120
  641.0000      0.0119
  642.0000      0.0118
  643.0000      0.0117
  644.0000      0.0116
  645.0000      0.0115
  646.0000      0.0114
  647.0000      0.0113
  648.0000      0.0112
  649.0000      0.0111
  650.0000      0.0111
  651.0000      0.0111
  652.0000      0.0110
  653.0000      0.0110
  654.0000      0.0109
  655.0000      0.0110
  656.0000      0.0110
  657.0000      0.0111
  658.0000      0.0111
  659.0000      0.0112
  660.0000      0.0113
  661.0000      0.0114
  662.0000      0.0115
  663.0000      0.0117
  664.0000      0.0118
  665.0000      0.0119
  666.0000      0.0120
  667.0000      0.0121
  668.0000      0.0122
  669.0000      0.0122
  670.0000      0.0123
  671.0000      0.0124
  672.0000      0.0124
  673.0000      0.0124
  674.0000      0.0124
  675.0000      0.0124
  676.0000      0.0124
  677.0000      0.0124
  678.0000      0.0124
  679.0000      0.0123
  680.0000      0.0123
  681.0000      0.0123
  682.0000      0.0122
  683.0000      0.0121
  684.0000      0.0119
  685.0000      0.0118
  686.0000      0.0116
  687.0000      0.0114
  688.0000      0.0113
  689.0000      0.0111
  690.0000      0.0110
  691.0000      0.0108
  692.0000      0.0106
  693.0000      0.0104
  694.0000      0.0104
  695.0000      0.0103
  696.0000      0.0101
  697.0000      0.0100
  698.0000      0.0099
  699.0000      0.0098
  700.0000      0.0097
  701.0000      0.0096
  702.0000      0.0095
  703.0000      0.0095
  704.0000      0.0094
  705.0000      0.0093
  706.0000      0.0092
  707.0000      0.0093
  708.0000      0.0092
  709.0000      0.0092
  710.0000      0.0091
  711.0000      0.0091
  712.0000      0.0090
  713.0000      0.0091
  714.0000      0.0091
  715.0000      0.0091
  716.0000      0.0091
  717.0000      0.0091
  718.0000      0.0091
  719.0000      0.0090
  720.0000      0.0090
  721.0000      0.0091
  722.0000      0.0090
  723.0000      0.0090
  724.0000      0.0089
  725.0000      0.0089
  726.0000      0.0089
  727.0000      0.0089
  728.0000      0.0088
  729.0000      0.0089
  730.0000      0.0089
  731.0000      0.0089
  732.0000      0.0089
  733.0000      0.0089
  734.0000      0.0089
  735.0000      0.0089
  736.0000      0.0094
  737.0000      0.0094
  738.0000      0.0094
  739.0000      0.0094
  740.0000      0.0093
  741.0000      0.0093
  742.0000      0.0093
  743.0000      0.0093
  744.0000      0.0093
  745.0000      0.0094
  746.0000      0.0093
  747.0000      0.0093
  748.0000      0.0093
  749.0000      0.0094
  750.0000      0.0094
  751.0000      0.0093
  752.0000      0.0093
  753.0000      0.0093
  754.0000      0.0093
  755.0000      0.0093
  756.0000      0.0092
  757.0000      0.0092
  758.0000      0.0091
  759.0000      0.0091
  760.0000      0.0091
  761.0000      0.0091
  762.0000      0.0091
  763.0000      0.0090
  764.0000      0.0090
  765.0000      0.0089
  766.0000      0.0089
  767.0000      0.0088
  768.0000      0.0087
  769.0000      0.0087
  770.0000      0.0086
  771.0000      0.0086
  772.0000      0.0085
  773.0000      0.0085
  774.0000      0.0085
  775.0000      0.0084
  776.0000      0.0083
  777.0000      0.0084
  778.0000      0.0083
  779.0000      0.0083
  780.0000      0.0083
  781.0000      0.0083
  782.0000      0.0083
  783.0000      0.0083
  784.0000      0.0083
  785.0000      0.0083
  786.0000      0.0082
  787.0000      0.0082
  788.0000      0.0081
  789.0000      0.0082
  790.0000      0.0081
  791.0000      0.0081
  792.0000      0.0080
  793.0000      0.0080
  794.0000      0.0080
  795.0000      0.0079
  796.0000      0.0078
  797.0000      0.0078
  798.0000      0.0078
  799.0000      0.0077
  800.0000      0.0076
