Start Wavelength:    200.0000
End Wavelength:    800.0000
Read Mode:  ABS
Read Average:      0.1000
Nanometer Interval:      1.0000
Time:      0.0000

  200.0000      1.7324
  201.0000      1.7205
  202.0000      1.6872
  203.0000      1.6213
  204.0000      1.6037
  205.0000      1.5819
  206.0000      1.5553
  207.0000      1.4934
  208.0000      1.4432
  209.0000      1.4032
  210.0000      1.3516
  211.0000      1.3002
  212.0000      1.2368
  213.0000      1.1684
  214.0000      1.1067
  215.0000      1.0449
  216.0000      0.9814
  217.0000      0.9130
  218.0000      0.8483
  219.0000      0.7895
  220.0000      0.7337
  221.0000      0.6754
  222.0000      0.6249
  223.0000      0.5764
  224.0000      0.5343
  225.0000      0.4921
  226.0000      0.4568
  227.0000      0.4243
  228.0000      0.3957
  229.0000      0.3686
  230.0000      0.3469
  231.0000      0.3271
  232.0000      0.3096
  233.0000      0.2932
  234.0000      0.2802
  235.0000      0.2695
  236.0000      0.2595
  237.0000      0.2505
  238.0000      0.2430
  239.0000      0.2367
  240.0000      0.2311
  241.0000      0.2253
  242.0000      0.2210
  243.0000      0.2170
  244.0000      0.2134
  245.0000      0.2101
  246.0000      0.2077
  247.0000      0.2046
  248.0000      0.2023
  249.0000      0.2003
  250.0000      0.1981
  251.0000      0.1962
  252.0000      0.1944
  253.0000      0.1926
  254.0000      0.1910
  255.0000      0.1899
  256.0000      0.1885
  257.0000      0.1868
  258.0000      0.1852
  259.0000      0.1843
  260.0000      0.1829
  261.0000      0.1809
  262.0000      0.1796
  263.0000      0.1780
  264.0000      0.1770
  265.0000      0.1759
  266.0000      0.1743
  267.0000      0.1728
  268.0000      0.1708
  269.0000      0.1704
  270.0000      0.1687
  271.0000      0.1667
  272.0000      0.1653
  273.0000      0.1632
  274.0000      0.1619
  275.0000      0.1608
  276.0000      0.1592
  277.0000      0.1568
  278.0000      0.1553
  279.0000      0.1542
  280.0000      0.1522
  281.0000      0.1500
  282.0000      0.1483
  283.0000      0.1463
  284.0000      0.1443
  285.0000      0.1431
  286.0000      0.1410
  287.0000      0.1383
  288.0000      0.1368
  289.0000      0.1349
  290.0000      0.1337
  291.0000      0.1317
  292.0000      0.1293
  293.0000      0.1273
  294.0000      0.1259
  295.0000      0.1242
  296.0000      0.1233
  297.0000      0.1210
  298.0000      0.1189
  299.0000      0.1177
  300.0000      0.1164
  301.0000      0.1147
  302.0000      0.1134
  303.0000      0.1114
  304.0000      0.1099
  305.0000      0.1084
  306.0000      0.1077
  307.0000      0.1063
  308.0000      0.1045
  309.0000      0.1033
  310.0000      0.1026
  311.0000      0.1012
  312.0000      0.1000
  313.0000      0.0987
  314.0000      0.0972
  315.0000      0.0965
  316.0000      0.0951
  317.0000      0.0939
  318.0000      0.0922
  319.0000      0.0914
  320.0000      0.0907
  321.0000      0.0898
  322.0000      0.0879
  323.0000      0.0865
  324.0000      0.0856
  325.0000      0.0842
  326.0000      0.0831
  327.0000      0.0822
  328.0000      0.0813
  329.0000      0.0800
  330.0000      0.0790
  331.0000      0.0784
  332.0000      0.0772
  333.0000      0.0766
  334.0000      0.0746
  335.0000      0.0741
  336.0000      0.0737
  337.0000      0.0726
  338.0000      0.0717
  339.0000      0.0704
  340.0000      0.0692
  341.0000      0.0690
  342.0000      0.0682
  343.0000      0.0676
  344.0000      0.0660
  345.0000      0.0661
  346.0000      0.0651
  347.0000      0.0644
  348.0000      0.0640
  349.0000      0.0628
  350.0000      0.0620
  351.0000      0.0616
  352.0000      0.0610
  353.0000      0.0603
  354.0000      0.0592
  355.0000      0.0589
  356.0000      0.0588
  357.0000      0.0570
  358.0000      0.0580
  359.0000      0.0573
  360.0000      0.0560
  361.0000      0.0544
  362.0000      0.0534
  363.0000      0.0550
  364.0000      0.0530
  365.0000      0.0543
  366.0000      0.0523
  367.0000      0.0517
  368.0000      0.0515
  369.0000      0.0514
  370.0000      0.0507
  371.0000      0.0491
  372.0000      0.0479
  373.0000      0.0495
  374.0000      0.0489
  375.0000      0.0478
  376.0000      0.0470
  377.0000      0.0466
  378.0000      0.0458
  379.0000      0.0468
  380.0000      0.0451
  381.0000      0.0439
  382.0000      0.0432
  383.0000      0.0440
  384.0000      0.0440
  385.0000      0.0435
  386.0000      0.0417
  387.0000      0.0417
  388.0000      0.0412
  389.0000      0.0411
  390.0000      0.0411
  391.0000      0.0399
  392.0000      0.0393
  393.0000      0.0394
  394.0000      0.0390
  395.0000      0.0393
  396.0000      0.0380
  397.0000      0.0379
  398.0000      0.0374
  399.0000      0.0369
  400.0000      0.0372
  401.0000      0.0363
  402.0000      0.0360
  403.0000      0.0356
  404.0000      0.0355
  405.0000      0.0350
  406.0000      0.0346
  407.0000      0.0345
  408.0000      0.0338
  409.0000      0.0333
  410.0000      0.0329
  411.0000      0.0330
  412.0000      0.0327
  413.0000      0.0329
  414.0000      0.0318
  415.0000      0.0318
  416.0000      0.0307
  417.0000      0.0303
  418.0000      0.0302
  419.0000      0.0299
  420.0000      0.0297
  421.0000      0.0294
  422.0000      0.0291
  423.0000      0.0288
  424.0000      0.0287
  425.0000      0.0284
  426.0000      0.0281
  427.0000      0.0280
  428.0000      0.0276
  429.0000      0.0274
  430.0000      0.0271
  431.0000      0.0269
  432.0000      0.0267
  433.0000      0.0265
  434.0000      0.0264
  435.0000      0.0261
  436.0000      0.0258
  437.0000      0.0257
  438.0000      0.0255
  439.0000      0.0253
  440.0000      0.0251
  441.0000      0.0249
  442.0000      0.0248
  443.0000      0.0247
  444.0000      0.0245
  445.0000      0.0243
  446.0000      0.0240
  447.0000      0.0239
  448.0000      0.0237
  449.0000      0.0236
  450.0000      0.0234
  451.0000      0.0232
  452.0000      0.0231
  453.0000      0.0230
  454.0000      0.0228
  455.0000      0.0226
  456.0000      0.0225
  457.0000      0.0223
  458.0000      0.0221
  459.0000      0.0220
  460.0000      0.0218
  461.0000      0.0216
  462.0000      0.0215
  463.0000      0.0214
  464.0000      0.0213
  465.0000      0.0211
  466.0000      0.0209
  467.0000      0.0208
  468.0000      0.0207
  469.0000      0.0205
  470.0000      0.0202
  471.0000      0.0201
  472.0000      0.0200
  473.0000      0.0199
  474.0000      0.0197
  475.0000      0.0196
  476.0000      0.0194
  477.0000      0.0193
  478.0000      0.0191
  479.0000      0.0189
  480.0000      0.0189
  481.0000      0.0187
  482.0000      0.0186
  483.0000      0.0185
  484.0000      0.0184
  485.0000      0.0183
  486.0000      0.0183
  487.0000      0.0182
  488.0000      0.0181
  489.0000      0.0180
  490.0000      0.0180
  491.0000      0.0178
  492.0000      0.0177
  493.0000      0.0175
  494.0000      0.0174
  495.0000      0.0174
  496.0000      0.0173
  497.0000      0.0172
  498.0000      0.0171
  499.0000      0.0170
  500.0000      0.0170
  501.0000      0.0170
  502.0000      0.0172
  503.0000      0.0175
  504.0000      0.0177
  505.0000      0.0178
  506.0000      0.0179
  507.0000      0.0180
  508.0000      0.0180
  509.0000      0.0181
  510.0000      0.0181
  511.0000      0.0182
  512.0000      0.0182
  513.0000      0.0181
  514.0000      0.0182
  515.0000      0.0182
  516.0000      0.0182
  517.0000      0.0182
  518.0000      0.0182
  519.0000      0.0182
  520.0000      0.0182
  521.0000      0.0183
  522.0000      0.0183
  523.0000      0.0182
  524.0000      0.0182
  525.0000      0.0182
  526.0000      0.0182
  527.0000      0.0181
  528.0000      0.0180
  529.0000      0.0179
  530.0000      0.0178
  531.0000      0.0177
  532.0000      0.0176
  533.0000      0.0175
  534.0000      0.0174
  535.0000      0.0173
  536.0000      0.0172
  537.0000      0.0170
  538.0000      0.0169
  539.0000      0.0167
  540.0000      0.0165
  541.0000      0.0163
  542.0000      0.0160
  543.0000      0.0157
  544.0000      0.0153
  545.0000      0.0148
  546.0000      0.0144
  547.0000      0.0141
  548.0000      0.0139
  549.0000      0.0138
  550.0000      0.0138
  551.0000      0.0137
  552.0000      0.0137
  553.0000      0.0136
  554.0000      0.0135
  555.0000      0.0135
  556.0000      0.0134
  557.0000      0.0135
  558.0000      0.0134
  559.0000      0.0134
  560.0000      0.0133
  561.0000      0.0133
  562.0000      0.0132
  563.0000      0.0132
  564.0000      0.0131
  565.0000      0.0130
  566.0000      0.0129
  567.0000      0.0129
  568.0000      0.0128
  569.0000      0.0128
  570.0000      0.0127
  571.0000      0.0126
  572.0000      0.0125
  573.0000      0.0124
  574.0000      0.0123
  575.0000      0.0123
  576.0000      0.0123
  577.0000      0.0123
  578.0000      0.0122
  579.0000      0.0121
  580.0000      0.0121
  581.0000      0.0121
  582.0000      0.0121
  583.0000      0.0121
  584.0000      0.0121
  585.0000      0.0121
  586.0000      0.0121
  587.0000      0.0121
  588.0000      0.0121
  589.0000      0.0121
  590.0000      0.0121
  591.0000      0.0121
  592.0000      0.0120
  593.0000      0.0120
  594.0000      0.0120
  595.0000      0.0119
  596.0000      0.0119
  597.0000      0.0119
  598.0000      0.0119
  599.0000      0.0118
  600.0000      0.0118
  601.0000      0.0118
  602.0000      0.0118
  603.0000      0.0117
  604.0000      0.0116
  605.0000      0.0116
  606.0000      0.0115
  607.0000      0.0115
  608.0000      0.0115
  609.0000      0.0115
  610.0000      0.0115
  611.0000      0.0115
  612.0000      0.0114
  613.0000      0.0114
  614.0000      0.0113
  615.0000      0.0112
  616.0000      0.0112
  617.0000      0.0111
  618.0000      0.0111
  619.0000      0.0110
  620.0000      0.0110
  621.0000      0.0109
  622.0000      0.0109
  623.0000      0.0109
  624.0000      0.0108
  625.0000      0.0108
  626.0000      0.0108
  627.0000      0.0107
  628.0000      0.0107
  629.0000      0.0106
  630.0000      0.0106
  631.0000      0.0106
  632.0000      0.0106
  633.0000      0.0106
  634.0000      0.0106
  635.0000      0.0105
  636.0000      0.0105
  637.0000      0.0104
  638.0000      0.0104
  639.0000      0.0104
  640.0000      0.0103
  641.0000      0.0103
  642.0000      0.0103
  643.0000      0.0103
  644.0000      0.0102
  645.0000      0.0102
  646.0000      0.0102
  647.0000      0.0102
  648.0000      0.0102
  649.0000      0.0103
  650.0000      0.0103
  651.0000      0.0103
  652.0000      0.0103
  653.0000      0.0103
  654.0000      0.0103
  655.0000      0.0103
  656.0000      0.0103
  657.0000      0.0103
  658.0000      0.0103
  659.0000      0.0102
  660.0000      0.0102
  661.0000      0.0102
  662.0000      0.0102
  663.0000      0.0102
  664.0000      0.0101
  665.0000      0.0102
  666.0000      0.0102
  667.0000      0.0102
  668.0000      0.0102
  669.0000      0.0102
  670.0000      0.0103
  671.0000      0.0102
  672.0000      0.0102
  673.0000      0.0102
  674.0000      0.0102
  675.0000      0.0102
  676.0000      0.0102
  677.0000      0.0102
  678.0000      0.0102
  679.0000      0.0102
  680.0000      0.0102
  681.0000      0.0101
  682.0000      0.0101
  683.0000      0.0100
  684.0000      0.0100
  685.0000      0.0100
  686.0000      0.0099
  687.0000      0.0099
  688.0000      0.0098
  689.0000      0.0098
  690.0000      0.0098
  691.0000      0.0097
  692.0000      0.0097
  693.0000      0.0097
  694.0000      0.0097
  695.0000      0.0097
  696.0000      0.0097
  697.0000      0.0097
  698.0000      0.0097
  699.0000      0.0097
  700.0000      0.0096
  701.0000      0.0096
  702.0000      0.0096
  703.0000      0.0096
  704.0000      0.0095
  705.0000      0.0095
  706.0000      0.0094
  707.0000      0.0095
  708.0000      0.0094
  709.0000      0.0094
  710.0000      0.0094
  711.0000      0.0093
  712.0000      0.0093
  713.0000      0.0093
  714.0000      0.0092
  715.0000      0.0091
  716.0000      0.0090
  717.0000      0.0089
  718.0000      0.0088
  719.0000      0.0087
  720.0000      0.0087
  721.0000      0.0086
  722.0000      0.0085
  723.0000      0.0085
  724.0000      0.0084
  725.0000      0.0084
  726.0000      0.0083
  727.0000      0.0083
  728.0000      0.0082
  729.0000      0.0082
  730.0000      0.0082
  731.0000      0.0081
  732.0000      0.0080
  733.0000      0.0079
  734.0000      0.0079
  735.0000      0.0078
  736.0000      0.0079
  737.0000      0.0078
  738.0000      0.0078
  739.0000      0.0079
  740.0000      0.0079
  741.0000      0.0080
  742.0000      0.0080
  743.0000      0.0080
  744.0000      0.0080
  745.0000      0.0080
  746.0000      0.0080
  747.0000      0.0080
  748.0000      0.0081
  749.0000      0.0081
  750.0000      0.0082
  751.0000      0.0082
  752.0000      0.0082
  753.0000      0.0082
  754.0000      0.0082
  755.0000      0.0083
  756.0000      0.0083
  757.0000      0.0083
  758.0000      0.0082
  759.0000      0.0082
  760.0000      0.0083
  761.0000      0.0082
  762.0000      0.0082
  763.0000      0.0082
  764.0000      0.0082
  765.0000      0.0081
  766.0000      0.0081
  767.0000      0.0081
  768.0000      0.0080
  769.0000      0.0080
  770.0000      0.0080
  771.0000      0.0080
  772.0000      0.0080
  773.0000      0.0080
  774.0000      0.0079
  775.0000      0.0079
  776.0000      0.0078
  777.0000      0.0079
  778.0000      0.0078
  779.0000      0.0078
  780.0000      0.0078
  781.0000      0.0078
  782.0000      0.0078
  783.0000      0.0077
  784.0000      0.0078
  785.0000      0.0077
  786.0000      0.0078
  787.0000      0.0077
  788.0000      0.0077
  789.0000      0.0078
  790.0000      0.0077
  791.0000      0.0078
  792.0000      0.0078
  793.0000      0.0078
  794.0000      0.0078
  795.0000      0.0078
  796.0000      0.0077
  797.0000      0.0078
  798.0000      0.0078
  799.0000      0.0077
  800.0000      0.0076
