Start Wavelength:    200.0000
End Wavelength:    800.0000
Read Mode:  ABS
Read Average:      0.1000
Nanometer Interval:      1.0000
Time:      0.0000

  200.0000      1.1382
  201.0000      1.1104
  202.0000      1.0865
  203.0000      1.0578
  204.0000      1.0271
  205.0000      1.0110
  206.0000      0.9900
  207.0000      0.9681
  208.0000      0.9383
  209.0000      0.9070
  210.0000      0.8793
  211.0000      0.8501
  212.0000      0.8175
  213.0000      0.7826
  214.0000      0.7505
  215.0000      0.7158
  216.0000      0.6835
  217.0000      0.6492
  218.0000      0.6169
  219.0000      0.5871
  220.0000      0.5582
  221.0000      0.5264
  222.0000      0.5008
  223.0000      0.4773
  224.0000      0.4538
  225.0000      0.4315
  226.0000      0.4129
  227.0000      0.3950
  228.0000      0.3792
  229.0000      0.3638
  230.0000      0.3511
  231.0000      0.3395
  232.0000      0.3288
  233.0000      0.3186
  234.0000      0.3102
  235.0000      0.3029
  236.0000      0.2966
  237.0000      0.2895
  238.0000      0.2841
  239.0000      0.2784
  240.0000      0.2742
  241.0000      0.2693
  242.0000      0.2654
  243.0000      0.2629
  244.0000      0.2587
  245.0000      0.2552
  246.0000      0.2529
  247.0000      0.2499
  248.0000      0.2474
  249.0000      0.2462
  250.0000      0.2435
  251.0000      0.2413
  252.0000      0.2393
  253.0000      0.2381
  254.0000      0.2358
  255.0000      0.2345
  256.0000      0.2328
  257.0000      0.2311
  258.0000      0.2292
  259.0000      0.2277
  260.0000      0.2262
  261.0000      0.2242
  262.0000      0.2223
  263.0000      0.2207
  264.0000      0.2187
  265.0000      0.2169
  266.0000      0.2161
  267.0000      0.2141
  268.0000      0.2120
  269.0000      0.2103
  270.0000      0.2080
  271.0000      0.2058
  272.0000      0.2043
  273.0000      0.2024
  274.0000      0.2003
  275.0000      0.1975
  276.0000      0.1957
  277.0000      0.1935
  278.0000      0.1914
  279.0000      0.1901
  280.0000      0.1882
  281.0000      0.1846
  282.0000      0.1826
  283.0000      0.1807
  284.0000      0.1780
  285.0000      0.1756
  286.0000      0.1733
  287.0000      0.1701
  288.0000      0.1678
  289.0000      0.1659
  290.0000      0.1640
  291.0000      0.1610
  292.0000      0.1588
  293.0000      0.1559
  294.0000      0.1537
  295.0000      0.1518
  296.0000      0.1498
  297.0000      0.1480
  298.0000      0.1453
  299.0000      0.1437
  300.0000      0.1418
  301.0000      0.1396
  302.0000      0.1383
  303.0000      0.1365
  304.0000      0.1347
  305.0000      0.1323
  306.0000      0.1305
  307.0000      0.1300
  308.0000      0.1279
  309.0000      0.1262
  310.0000      0.1249
  311.0000      0.1233
  312.0000      0.1211
  313.0000      0.1202
  314.0000      0.1188
  315.0000      0.1172
  316.0000      0.1164
  317.0000      0.1143
  318.0000      0.1131
  319.0000      0.1116
  320.0000      0.1102
  321.0000      0.1104
  322.0000      0.1082
  323.0000      0.1064
  324.0000      0.1057
  325.0000      0.1051
  326.0000      0.1028
  327.0000      0.1015
  328.0000      0.1008
  329.0000      0.0997
  330.0000      0.0984
  331.0000      0.0973
  332.0000      0.0965
  333.0000      0.0947
  334.0000      0.0934
  335.0000      0.0929
  336.0000      0.0919
  337.0000      0.0905
  338.0000      0.0892
  339.0000      0.0884
  340.0000      0.0871
  341.0000      0.0865
  342.0000      0.0859
  343.0000      0.0844
  344.0000      0.0831
  345.0000      0.0828
  346.0000      0.0820
  347.0000      0.0811
  348.0000      0.0803
  349.0000      0.0798
  350.0000      0.0781
  351.0000      0.0773
  352.0000      0.0772
  353.0000      0.0762
  354.0000      0.0753
  355.0000      0.0742
  356.0000      0.0740
  357.0000      0.0721
  358.0000      0.0728
  359.0000      0.0693
  360.0000      0.0667
  361.0000      0.0665
  362.0000      0.0678
  363.0000      0.0672
  364.0000      0.0666
  365.0000      0.0655
  366.0000      0.0634
  367.0000      0.0625
  368.0000      0.0646
  369.0000      0.0642
  370.0000      0.0626
  371.0000      0.0614
  372.0000      0.0601
  373.0000      0.0606
  374.0000      0.0602
  375.0000      0.0585
  376.0000      0.0579
  377.0000      0.0574
  378.0000      0.0564
  379.0000      0.0577
  380.0000      0.0560
  381.0000      0.0543
  382.0000      0.0546
  383.0000      0.0544
  384.0000      0.0535
  385.0000      0.0533
  386.0000      0.0525
  387.0000      0.0526
  388.0000      0.0510
  389.0000      0.0510
  390.0000      0.0511
  391.0000      0.0503
  392.0000      0.0495
  393.0000      0.0490
  394.0000      0.0492
  395.0000      0.0485
  396.0000      0.0473
  397.0000      0.0473
  398.0000      0.0470
  399.0000      0.0463
  400.0000      0.0466
  401.0000      0.0460
  402.0000      0.0450
  403.0000      0.0449
  404.0000      0.0448
  405.0000      0.0449
  406.0000      0.0437
  407.0000      0.0431
  408.0000      0.0432
  409.0000      0.0427
  410.0000      0.0422
  411.0000      0.0419
  412.0000      0.0415
  413.0000      0.0409
  414.0000      0.0406
  415.0000      0.0408
  416.0000      0.0399
  417.0000      0.0394
  418.0000      0.0392
  419.0000      0.0387
  420.0000      0.0383
  421.0000      0.0380
  422.0000      0.0377
  423.0000      0.0373
  424.0000      0.0371
  425.0000      0.0367
  426.0000      0.0366
  427.0000      0.0364
  428.0000      0.0360
  429.0000      0.0357
  430.0000      0.0355
  431.0000      0.0352
  432.0000      0.0349
  433.0000      0.0347
  434.0000      0.0345
  435.0000      0.0342
  436.0000      0.0339
  437.0000      0.0338
  438.0000      0.0335
  439.0000      0.0331
  440.0000      0.0330
  441.0000      0.0327
  442.0000      0.0325
  443.0000      0.0322
  444.0000      0.0320
  445.0000      0.0317
  446.0000      0.0314
  447.0000      0.0312
  448.0000      0.0310
  449.0000      0.0307
  450.0000      0.0304
  451.0000      0.0302
  452.0000      0.0299
  453.0000      0.0297
  454.0000      0.0294
  455.0000      0.0294
  456.0000      0.0291
  457.0000      0.0290
  458.0000      0.0288
  459.0000      0.0286
  460.0000      0.0283
  461.0000      0.0282
  462.0000      0.0280
  463.0000      0.0278
  464.0000      0.0276
  465.0000      0.0274
  466.0000      0.0271
  467.0000      0.0269
  468.0000      0.0267
  469.0000      0.0265
  470.0000      0.0263
  471.0000      0.0261
  472.0000      0.0260
  473.0000      0.0259
  474.0000      0.0257
  475.0000      0.0256
  476.0000      0.0254
  477.0000      0.0252
  478.0000      0.0250
  479.0000      0.0249
  480.0000      0.0247
  481.0000      0.0245
  482.0000      0.0244
  483.0000      0.0242
  484.0000      0.0241
  485.0000      0.0239
  486.0000      0.0238
  487.0000      0.0236
  488.0000      0.0234
  489.0000      0.0233
  490.0000      0.0231
  491.0000      0.0230
  492.0000      0.0229
  493.0000      0.0228
  494.0000      0.0227
  495.0000      0.0226
  496.0000      0.0225
  497.0000      0.0224
  498.0000      0.0223
  499.0000      0.0221
  500.0000      0.0220
  501.0000      0.0219
  502.0000      0.0217
  503.0000      0.0216
  504.0000      0.0215
  505.0000      0.0214
  506.0000      0.0214
  507.0000      0.0213
  508.0000      0.0211
  509.0000      0.0210
  510.0000      0.0208
  511.0000      0.0207
  512.0000      0.0206
  513.0000      0.0204
  514.0000      0.0204
  515.0000      0.0203
  516.0000      0.0202
  517.0000      0.0201
  518.0000      0.0200
  519.0000      0.0198
  520.0000      0.0196
  521.0000      0.0195
  522.0000      0.0194
  523.0000      0.0193
  524.0000      0.0192
  525.0000      0.0192
  526.0000      0.0192
  527.0000      0.0191
  528.0000      0.0190
  529.0000      0.0190
  530.0000      0.0189
  531.0000      0.0188
  532.0000      0.0188
  533.0000      0.0187
  534.0000      0.0186
  535.0000      0.0186
  536.0000      0.0186
  537.0000      0.0185
  538.0000      0.0184
  539.0000      0.0183
  540.0000      0.0182
  541.0000      0.0181
  542.0000      0.0181
  543.0000      0.0180
  544.0000      0.0180
  545.0000      0.0180
  546.0000      0.0180
  547.0000      0.0180
  548.0000      0.0179
  549.0000      0.0178
  550.0000      0.0177
  551.0000      0.0177
  552.0000      0.0177
  553.0000      0.0177
  554.0000      0.0176
  555.0000      0.0176
  556.0000      0.0175
  557.0000      0.0169
  558.0000      0.0168
  559.0000      0.0167
  560.0000      0.0167
  561.0000      0.0166
  562.0000      0.0165
  563.0000      0.0164
  564.0000      0.0163
  565.0000      0.0163
  566.0000      0.0162
  567.0000      0.0161
  568.0000      0.0160
  569.0000      0.0159
  570.0000      0.0157
  571.0000      0.0157
  572.0000      0.0156
  573.0000      0.0155
  574.0000      0.0154
  575.0000      0.0153
  576.0000      0.0152
  577.0000      0.0151
  578.0000      0.0150
  579.0000      0.0149
  580.0000      0.0147
  581.0000      0.0147
  582.0000      0.0146
  583.0000      0.0146
  584.0000      0.0146
  585.0000      0.0145
  586.0000      0.0145
  587.0000      0.0145
  588.0000      0.0144
  589.0000      0.0144
  590.0000      0.0144
  591.0000      0.0144
  592.0000      0.0143
  593.0000      0.0142
  594.0000      0.0142
  595.0000      0.0141
  596.0000      0.0141
  597.0000      0.0141
  598.0000      0.0140
  599.0000      0.0139
  600.0000      0.0139
  601.0000      0.0139
  602.0000      0.0139
  603.0000      0.0138
  604.0000      0.0138
  605.0000      0.0137
  606.0000      0.0137
  607.0000      0.0138
  608.0000      0.0138
  609.0000      0.0137
  610.0000      0.0137
  611.0000      0.0136
  612.0000      0.0136
  613.0000      0.0135
  614.0000      0.0134
  615.0000      0.0134
  616.0000      0.0133
  617.0000      0.0133
  618.0000      0.0133
  619.0000      0.0133
  620.0000      0.0133
  621.0000      0.0132
  622.0000      0.0132
  623.0000      0.0131
  624.0000      0.0131
  625.0000      0.0131
  626.0000      0.0131
  627.0000      0.0131
  628.0000      0.0131
  629.0000      0.0130
  630.0000      0.0130
  631.0000      0.0129
  632.0000      0.0129
  633.0000      0.0129
  634.0000      0.0130
  635.0000      0.0130
  636.0000      0.0130
  637.0000      0.0130
  638.0000      0.0130
  639.0000      0.0130
  640.0000      0.0130
  641.0000      0.0129
  642.0000      0.0129
  643.0000      0.0129
  644.0000      0.0128
  645.0000      0.0128
  646.0000      0.0127
  647.0000      0.0126
  648.0000      0.0127
  649.0000      0.0127
  650.0000      0.0127
  651.0000      0.0127
  652.0000      0.0126
  653.0000      0.0126
  654.0000      0.0126
  655.0000      0.0125
  656.0000      0.0125
  657.0000      0.0125
  658.0000      0.0124
  659.0000      0.0124
  660.0000      0.0124
  661.0000      0.0124
  662.0000      0.0124
  663.0000      0.0123
  664.0000      0.0123
  665.0000      0.0123
  666.0000      0.0122
  667.0000      0.0122
  668.0000      0.0122
  669.0000      0.0121
  670.0000      0.0121
  671.0000      0.0120
  672.0000      0.0119
  673.0000      0.0119
  674.0000      0.0118
  675.0000      0.0117
  676.0000      0.0117
  677.0000      0.0117
  678.0000      0.0117
  679.0000      0.0117
  680.0000      0.0117
  681.0000      0.0117
  682.0000      0.0117
  683.0000      0.0116
  684.0000      0.0116
  685.0000      0.0116
  686.0000      0.0115
  687.0000      0.0115
  688.0000      0.0115
  689.0000      0.0115
  690.0000      0.0115
  691.0000      0.0114
  692.0000      0.0113
  693.0000      0.0112
  694.0000      0.0111
  695.0000      0.0111
  696.0000      0.0110
  697.0000      0.0110
  698.0000      0.0110
  699.0000      0.0110
  700.0000      0.0109
  701.0000      0.0109
  702.0000      0.0109
  703.0000      0.0109
  704.0000      0.0109
  705.0000      0.0108
  706.0000      0.0108
  707.0000      0.0108
  708.0000      0.0108
  709.0000      0.0108
  710.0000      0.0107
  711.0000      0.0106
  712.0000      0.0106
  713.0000      0.0106
  714.0000      0.0105
  715.0000      0.0104
  716.0000      0.0104
  717.0000      0.0104
  718.0000      0.0104
  719.0000      0.0104
  720.0000      0.0104
  721.0000      0.0103
  722.0000      0.0103
  723.0000      0.0104
  724.0000      0.0103
  725.0000      0.0103
  726.0000      0.0103
  727.0000      0.0103
  728.0000      0.0103
  729.0000      0.0102
  730.0000      0.0102
  731.0000      0.0102
  732.0000      0.0101
  733.0000      0.0100
  734.0000      0.0100
  735.0000      0.0100
  736.0000      0.0093
  737.0000      0.0092
  738.0000      0.0092
  739.0000      0.0092
  740.0000      0.0093
  741.0000      0.0093
  742.0000      0.0093
  743.0000      0.0093
  744.0000      0.0093
  745.0000      0.0093
  746.0000      0.0094
  747.0000      0.0094
  748.0000      0.0094
  749.0000      0.0095
  750.0000      0.0094
  751.0000      0.0094
  752.0000      0.0094
  753.0000      0.0094
  754.0000      0.0094
  755.0000      0.0094
  756.0000      0.0094
  757.0000      0.0093
  758.0000      0.0093
  759.0000      0.0094
  760.0000      0.0094
  761.0000      0.0094
  762.0000      0.0094
  763.0000      0.0094
  764.0000      0.0095
  765.0000      0.0094
  766.0000      0.0094
  767.0000      0.0094
  768.0000      0.0093
  769.0000      0.0093
  770.0000      0.0093
  771.0000      0.0093
  772.0000      0.0092
  773.0000      0.0092
  774.0000      0.0092
  775.0000      0.0091
  776.0000      0.0091
  777.0000      0.0091
  778.0000      0.0091
  779.0000      0.0092
  780.0000      0.0091
  781.0000      0.0091
  782.0000      0.0091
  783.0000      0.0091
  784.0000      0.0091
  785.0000      0.0091
  786.0000      0.0091
  787.0000      0.0090
  788.0000      0.0090
  789.0000      0.0090
  790.0000      0.0089
  791.0000      0.0090
  792.0000      0.0089
  793.0000      0.0088
  794.0000      0.0088
  795.0000      0.0087
  796.0000      0.0087
  797.0000      0.0087
  798.0000      0.0086
  799.0000      0.0086
  800.0000      0.0085
