Start Wavelength:    200.0000
End Wavelength:    800.0000
Read Mode:  ABS
Read Average:      0.1000
Nanometer Interval:      1.0000
Time:      0.0000

  200.0000      0.8002
  201.0000      0.7563
  202.0000      0.7329
  203.0000      0.7139
  204.0000      0.6893
  205.0000      0.6693
  206.0000      0.6555
  207.0000      0.6378
  208.0000      0.6216
  209.0000      0.6014
  210.0000      0.5830
  211.0000      0.5673
  212.0000      0.5495
  213.0000      0.5292
  214.0000      0.5111
  215.0000      0.4932
  216.0000      0.4770
  217.0000      0.4583
  218.0000      0.4416
  219.0000      0.4254
  220.0000      0.4101
  221.0000      0.3945
  222.0000      0.3811
  223.0000      0.3684
  224.0000      0.3555
  225.0000      0.3428
  226.0000      0.3336
  227.0000      0.3233
  228.0000      0.3146
  229.0000      0.3051
  230.0000      0.2970
  231.0000      0.2902
  232.0000      0.2835
  233.0000      0.2770
  234.0000      0.2710
  235.0000      0.2657
  236.0000      0.2607
  237.0000      0.2559
  238.0000      0.2519
  239.0000      0.2472
  240.0000      0.2438
  241.0000      0.2400
  242.0000      0.2366
  243.0000      0.2342
  244.0000      0.2312
  245.0000      0.2280
  246.0000      0.2264
  247.0000      0.2238
  248.0000      0.2216
  249.0000      0.2198
  250.0000      0.2176
  251.0000      0.2161
  252.0000      0.2143
  253.0000      0.2130
  254.0000      0.2109
  255.0000      0.2095
  256.0000      0.2080
  257.0000      0.2068
  258.0000      0.2055
  259.0000      0.2035
  260.0000      0.2021
  261.0000      0.2011
  262.0000      0.1994
  263.0000      0.1977
  264.0000      0.1961
  265.0000      0.1947
  266.0000      0.1932
  267.0000      0.1912
  268.0000      0.1895
  269.0000      0.1876
  270.0000      0.1854
  271.0000      0.1839
  272.0000      0.1817
  273.0000      0.1800
  274.0000      0.1774
  275.0000      0.1752
  276.0000      0.1744
  277.0000      0.1719
  278.0000      0.1693
  279.0000      0.1683
  280.0000      0.1658
  281.0000      0.1634
  282.0000      0.1611
  283.0000      0.1596
  284.0000      0.1564
  285.0000      0.1544
  286.0000      0.1524
  287.0000      0.1493
  288.0000      0.1472
  289.0000      0.1449
  290.0000      0.1426
  291.0000      0.1405
  292.0000      0.1387
  293.0000      0.1363
  294.0000      0.1342
  295.0000      0.1317
  296.0000      0.1303
  297.0000      0.1280
  298.0000      0.1260
  299.0000      0.1241
  300.0000      0.1219
  301.0000      0.1201
  302.0000      0.1192
  303.0000      0.1174
  304.0000      0.1152
  305.0000      0.1139
  306.0000      0.1123
  307.0000      0.1117
  308.0000      0.1103
  309.0000      0.1081
  310.0000      0.1067
  311.0000      0.1058
  312.0000      0.1045
  313.0000      0.1031
  314.0000      0.1011
  315.0000      0.1000
  316.0000      0.0990
  317.0000      0.0980
  318.0000      0.0968
  319.0000      0.0955
  320.0000      0.0936
  321.0000      0.0935
  322.0000      0.0931
  323.0000      0.0911
  324.0000      0.0906
  325.0000      0.0899
  326.0000      0.0888
  327.0000      0.0880
  328.0000      0.0864
  329.0000      0.0857
  330.0000      0.0847
  331.0000      0.0841
  332.0000      0.0824
  333.0000      0.0815
  334.0000      0.0802
  335.0000      0.0798
  336.0000      0.0794
  337.0000      0.0775
  338.0000      0.0764
  339.0000      0.0757
  340.0000      0.0747
  341.0000      0.0746
  342.0000      0.0731
  343.0000      0.0722
  344.0000      0.0708
  345.0000      0.0706
  346.0000      0.0696
  347.0000      0.0687
  348.0000      0.0678
  349.0000      0.0669
  350.0000      0.0662
  351.0000      0.0653
  352.0000      0.0648
  353.0000      0.0635
  354.0000      0.0629
  355.0000      0.0624
  356.0000      0.0621
  357.0000      0.0585
  358.0000      0.0608
  359.0000      0.0593
  360.0000      0.0577
  361.0000      0.0573
  362.0000      0.0553
  363.0000      0.0566
  364.0000      0.0559
  365.0000      0.0575
  366.0000      0.0561
  367.0000      0.0540
  368.0000      0.0543
  369.0000      0.0545
  370.0000      0.0531
  371.0000      0.0520
  372.0000      0.0511
  373.0000      0.0528
  374.0000      0.0514
  375.0000      0.0502
  376.0000      0.0498
  377.0000      0.0494
  378.0000      0.0486
  379.0000      0.0489
  380.0000      0.0480
  381.0000      0.0470
  382.0000      0.0459
  383.0000      0.0459
  384.0000      0.0460
  385.0000      0.0457
  386.0000      0.0447
  387.0000      0.0440
  388.0000      0.0432
  389.0000      0.0433
  390.0000      0.0432
  391.0000      0.0428
  392.0000      0.0410
  393.0000      0.0407
  394.0000      0.0410
  395.0000      0.0409
  396.0000      0.0394
  397.0000      0.0390
  398.0000      0.0384
  399.0000      0.0381
  400.0000      0.0383
  401.0000      0.0379
  402.0000      0.0372
  403.0000      0.0365
  404.0000      0.0369
  405.0000      0.0368
  406.0000      0.0359
  407.0000      0.0355
  408.0000      0.0354
  409.0000      0.0350
  410.0000      0.0349
  411.0000      0.0347
  412.0000      0.0343
  413.0000      0.0343
  414.0000      0.0338
  415.0000      0.0338
  416.0000      0.0351
  417.0000      0.0346
  418.0000      0.0345
  419.0000      0.0341
  420.0000      0.0339
  421.0000      0.0335
  422.0000      0.0332
  423.0000      0.0327
  424.0000      0.0325
  425.0000      0.0321
  426.0000      0.0320
  427.0000      0.0317
  428.0000      0.0312
  429.0000      0.0310
  430.0000      0.0306
  431.0000      0.0303
  432.0000      0.0299
  433.0000      0.0296
  434.0000      0.0293
  435.0000      0.0290
  436.0000      0.0287
  437.0000      0.0285
  438.0000      0.0282
  439.0000      0.0278
  440.0000      0.0275
  441.0000      0.0273
  442.0000      0.0271
  443.0000      0.0268
  444.0000      0.0267
  445.0000      0.0266
  446.0000      0.0264
  447.0000      0.0263
  448.0000      0.0261
  449.0000      0.0261
  450.0000      0.0259
  451.0000      0.0259
  452.0000      0.0257
  453.0000      0.0256
  454.0000      0.0254
  455.0000      0.0253
  456.0000      0.0251
  457.0000      0.0250
  458.0000      0.0248
  459.0000      0.0247
  460.0000      0.0246
  461.0000      0.0245
  462.0000      0.0244
  463.0000      0.0243
  464.0000      0.0241
  465.0000      0.0240
  466.0000      0.0239
  467.0000      0.0237
  468.0000      0.0237
  469.0000      0.0236
  470.0000      0.0234
  471.0000      0.0233
  472.0000      0.0232
  473.0000      0.0230
  474.0000      0.0229
  475.0000      0.0227
  476.0000      0.0226
  477.0000      0.0223
  478.0000      0.0222
  479.0000      0.0221
  480.0000      0.0220
  481.0000      0.0218
  482.0000      0.0217
  483.0000      0.0215
  484.0000      0.0214
  485.0000      0.0212
  486.0000      0.0210
  487.0000      0.0208
  488.0000      0.0207
  489.0000      0.0205
  490.0000      0.0204
  491.0000      0.0201
  492.0000      0.0200
  493.0000      0.0197
  494.0000      0.0196
  495.0000      0.0195
  496.0000      0.0194
  497.0000      0.0193
  498.0000      0.0193
  499.0000      0.0192
  500.0000      0.0193
  501.0000      0.0194
  502.0000      0.0194
  503.0000      0.0194
  504.0000      0.0195
  505.0000      0.0194
  506.0000      0.0194
  507.0000      0.0194
  508.0000      0.0193
  509.0000      0.0192
  510.0000      0.0191
  511.0000      0.0191
  512.0000      0.0190
  513.0000      0.0188
  514.0000      0.0188
  515.0000      0.0187
  516.0000      0.0186
  517.0000      0.0185
  518.0000      0.0184
  519.0000      0.0183
  520.0000      0.0182
  521.0000      0.0181
  522.0000      0.0180
  523.0000      0.0179
  524.0000      0.0179
  525.0000      0.0178
  526.0000      0.0177
  527.0000      0.0175
  528.0000      0.0174
  529.0000      0.0173
  530.0000      0.0173
  531.0000      0.0177
  532.0000      0.0182
  533.0000      0.0186
  534.0000      0.0189
  535.0000      0.0192
  536.0000      0.0194
  537.0000      0.0193
  538.0000      0.0191
  539.0000      0.0189
  540.0000      0.0187
  541.0000      0.0185
  542.0000      0.0183
  543.0000      0.0182
  544.0000      0.0182
  545.0000      0.0181
  546.0000      0.0180
  547.0000      0.0179
  548.0000      0.0177
  549.0000      0.0175
  550.0000      0.0174
  551.0000      0.0172
  552.0000      0.0170
  553.0000      0.0168
  554.0000      0.0165
  555.0000      0.0162
  556.0000      0.0159
  557.0000      0.0151
  558.0000      0.0150
  559.0000      0.0150
  560.0000      0.0150
  561.0000      0.0150
  562.0000      0.0150
  563.0000      0.0149
  564.0000      0.0148
  565.0000      0.0147
  566.0000      0.0145
  567.0000      0.0144
  568.0000      0.0142
  569.0000      0.0139
  570.0000      0.0137
  571.0000      0.0136
  572.0000      0.0135
  573.0000      0.0133
  574.0000      0.0132
  575.0000      0.0132
  576.0000      0.0132
  577.0000      0.0132
  578.0000      0.0132
  579.0000      0.0133
  580.0000      0.0133
  581.0000      0.0134
  582.0000      0.0134
  583.0000      0.0134
  584.0000      0.0134
  585.0000      0.0133
  586.0000      0.0132
  587.0000      0.0133
  588.0000      0.0132
  589.0000      0.0132
  590.0000      0.0132
  591.0000      0.0133
  592.0000      0.0133
  593.0000      0.0132
  594.0000      0.0132
  595.0000      0.0131
  596.0000      0.0131
  597.0000      0.0130
  598.0000      0.0129
  599.0000      0.0128
  600.0000      0.0127
  601.0000      0.0126
  602.0000      0.0126
  603.0000      0.0126
  604.0000      0.0126
  605.0000      0.0126
  606.0000      0.0126
  607.0000      0.0126
  608.0000      0.0126
  609.0000      0.0126
  610.0000      0.0126
  611.0000      0.0125
  612.0000      0.0124
  613.0000      0.0124
  614.0000      0.0123
  615.0000      0.0123
  616.0000      0.0122
  617.0000      0.0122
  618.0000      0.0122
  619.0000      0.0123
  620.0000      0.0124
  621.0000      0.0124
  622.0000      0.0125
  623.0000      0.0125
  624.0000      0.0125
  625.0000      0.0125
  626.0000      0.0124
  627.0000      0.0124
  628.0000      0.0124
  629.0000      0.0125
  630.0000      0.0125
  631.0000      0.0125
  632.0000      0.0124
  633.0000      0.0124
  634.0000      0.0124
  635.0000      0.0124
  636.0000      0.0122
  637.0000      0.0121
  638.0000      0.0120
  639.0000      0.0119
  640.0000      0.0119
  641.0000      0.0117
  642.0000      0.0117
  643.0000      0.0117
  644.0000      0.0117
  645.0000      0.0116
  646.0000      0.0116
  647.0000      0.0116
  648.0000      0.0117
  649.0000      0.0116
  650.0000      0.0116
  651.0000      0.0115
  652.0000      0.0115
  653.0000      0.0114
  654.0000      0.0114
  655.0000      0.0114
  656.0000      0.0113
  657.0000      0.0113
  658.0000      0.0113
  659.0000      0.0113
  660.0000      0.0113
  661.0000      0.0114
  662.0000      0.0115
  663.0000      0.0117
  664.0000      0.0117
  665.0000      0.0117
  666.0000      0.0118
  667.0000      0.0119
  668.0000      0.0119
  669.0000      0.0119
  670.0000      0.0120
  671.0000      0.0120
  672.0000      0.0120
  673.0000      0.0120
  674.0000      0.0121
  675.0000      0.0121
  676.0000      0.0121
  677.0000      0.0121
  678.0000      0.0120
  679.0000      0.0120
  680.0000      0.0120
  681.0000      0.0120
  682.0000      0.0119
  683.0000      0.0118
  684.0000      0.0116
  685.0000      0.0114
  686.0000      0.0112
  687.0000      0.0112
  688.0000      0.0110
  689.0000      0.0109
  690.0000      0.0108
  691.0000      0.0107
  692.0000      0.0106
  693.0000      0.0105
  694.0000      0.0104
  695.0000      0.0103
  696.0000      0.0102
  697.0000      0.0101
  698.0000      0.0100
  699.0000      0.0100
  700.0000      0.0098
  701.0000      0.0097
  702.0000      0.0096
  703.0000      0.0096
  704.0000      0.0094
  705.0000      0.0094
  706.0000      0.0093
  707.0000      0.0093
  708.0000      0.0092
  709.0000      0.0092
  710.0000      0.0091
  711.0000      0.0090
  712.0000      0.0090
  713.0000      0.0090
  714.0000      0.0089
  715.0000      0.0089
  716.0000      0.0089
  717.0000      0.0089
  718.0000      0.0088
  719.0000      0.0088
  720.0000      0.0088
  721.0000      0.0088
  722.0000      0.0088
  723.0000      0.0088
  724.0000      0.0088
  725.0000      0.0088
  726.0000      0.0088
  727.0000      0.0088
  728.0000      0.0088
  729.0000      0.0089
  730.0000      0.0090
  731.0000      0.0090
  732.0000      0.0090
  733.0000      0.0090
  734.0000      0.0091
  735.0000      0.0090
  736.0000      0.0078
  737.0000      0.0077
  738.0000      0.0077
  739.0000      0.0077
  740.0000      0.0078
  741.0000      0.0078
  742.0000      0.0078
  743.0000      0.0078
  744.0000      0.0078
  745.0000      0.0078
  746.0000      0.0077
  747.0000      0.0078
  748.0000      0.0078
  749.0000      0.0078
  750.0000      0.0079
  751.0000      0.0079
  752.0000      0.0079
  753.0000      0.0079
  754.0000      0.0079
  755.0000      0.0080
  756.0000      0.0080
  757.0000      0.0080
  758.0000      0.0080
  759.0000      0.0081
  760.0000      0.0081
  761.0000      0.0082
  762.0000      0.0082
  763.0000      0.0082
  764.0000      0.0083
  765.0000      0.0084
  766.0000      0.0084
  767.0000      0.0085
  768.0000      0.0085
  769.0000      0.0086
  770.0000      0.0087
  771.0000      0.0087
  772.0000      0.0087
  773.0000      0.0088
  774.0000      0.0089
  775.0000      0.0090
  776.0000      0.0090
  777.0000      0.0092
  778.0000      0.0093
  779.0000      0.0094
  780.0000      0.0095
  781.0000      0.0096
  782.0000      0.0097
  783.0000      0.0097
  784.0000      0.0098
  785.0000      0.0100
  786.0000      0.0101
  787.0000      0.0102
  788.0000      0.0101
  789.0000      0.0102
  790.0000      0.0102
  791.0000      0.0103
  792.0000      0.0103
  793.0000      0.0103
  794.0000      0.0102
  795.0000      0.0102
  796.0000      0.0101
  797.0000      0.0101
  798.0000      0.0100
  799.0000      0.0099
  800.0000      0.0098
