Start Wavelength:    200.0000
End Wavelength:    800.0000
Read Mode:  ABS
Read Average:      0.1000
Nanometer Interval:      1.0000
Time:      0.0000

  200.0000     -0.0135
  201.0000     -0.0118
  202.0000     -0.0105
  203.0000     -0.0102
  204.0000     -0.0100
  205.0000     -0.0093
  206.0000     -0.0084
  207.0000     -0.0086
  208.0000     -0.0079
  209.0000     -0.0073
  210.0000     -0.0074
  211.0000     -0.0066
  212.0000     -0.0069
  213.0000     -0.0067
  214.0000     -0.0059
  215.0000     -0.0063
  216.0000     -0.0058
  217.0000     -0.0056
  218.0000     -0.0060
  219.0000     -0.0060
  220.0000     -0.0054
  221.0000     -0.0053
  222.0000     -0.0058
  223.0000     -0.0053
  224.0000     -0.0057
  225.0000     -0.0055
  226.0000     -0.0050
  227.0000     -0.0052
  228.0000     -0.0049
  229.0000     -0.0047
  230.0000     -0.0049
  231.0000     -0.0046
  232.0000     -0.0044
  233.0000     -0.0043
  234.0000     -0.0044
  235.0000     -0.0040
  236.0000     -0.0042
  237.0000     -0.0040
  238.0000     -0.0035
  239.0000     -0.0038
  240.0000     -0.0033
  241.0000     -0.0031
  242.0000     -0.0032
  243.0000     -0.0028
  244.0000     -0.0029
  245.0000     -0.0027
  246.0000     -0.0027
  247.0000     -0.0025
  248.0000     -0.0024
  249.0000     -0.0025
  250.0000     -0.0023
  251.0000     -0.0022
  252.0000     -0.0021
  253.0000     -0.0021
  254.0000     -0.0021
  255.0000     -0.0017
  256.0000     -0.0018
  257.0000     -0.0016
  258.0000     -0.0019
  259.0000     -0.0019
  260.0000     -0.0017
  261.0000     -0.0018
  262.0000     -0.0018
  263.0000     -0.0018
  264.0000     -0.0021
  265.0000     -0.0017
  266.0000     -0.0018
  267.0000     -0.0015
  268.0000     -0.0019
  269.0000     -0.0018
  270.0000     -0.0022
  271.0000     -0.0013
  272.0000     -0.0019
  273.0000     -0.0016
  274.0000     -0.0015
  275.0000     -0.0012
  276.0000     -0.0017
  277.0000     -0.0008
  278.0000     -0.0014
  279.0000     -0.0017
  280.0000     -0.0011
  281.0000     -0.0012
  282.0000     -0.0016
  283.0000     -0.0007
  284.0000     -0.0011
  285.0000     -0.0012
  286.0000     -0.0006
  287.0000     -0.0010
  288.0000     -0.0009
  289.0000     -0.0004
  290.0000     -0.0009
  291.0000     -0.0009
  292.0000     -0.0008
  293.0000     -0.0006
  294.0000     -0.0012
  295.0000     -0.0008
  296.0000     -0.0005
  297.0000     -0.0007
  298.0000     -0.0005
  299.0000     -0.0007
  300.0000     -0.0007
  301.0000     -0.0006
  302.0000     -0.0007
  303.0000     -0.0004
  304.0000     -0.0003
  305.0000     -0.0007
  306.0000     -0.0001
  307.0000     -0.0003
  308.0000     -0.0007
  309.0000     -0.0002
  310.0000     -0.0007
  311.0000     -0.0009
  312.0000     -0.0006
  313.0000     -0.0002
  314.0000     -0.0005
  315.0000     -0.0003
  316.0000     -0.0001
  317.0000     -0.0008
  318.0000     -0.0001
  319.0000     -0.0002
  320.0000     -0.0005
  321.0000     -0.0009
  322.0000     -0.0001
  323.0000      0.0001
  324.0000     -0.0001
  325.0000      0.0001
  326.0000     -0.0001
  327.0000      0.0002
  328.0000     -0.0004
  329.0000      0.0003
  330.0000     -0.0001
  331.0000      0.0001
  332.0000      0.0002
  333.0000     -0.0002
  334.0000     -0.0003
  335.0000      0.0003
  336.0000     -0.0003
  337.0000     -0.0000
  338.0000      0.0002
  339.0000      0.0002
  340.0000     -0.0000
  341.0000      0.0001
  342.0000      0.0000
  343.0000     -0.0000
  344.0000      0.0001
  345.0000     -0.0002
  346.0000      0.0001
  347.0000      0.0001
  348.0000      0.0000
  349.0000     -0.0003
  350.0000     -0.0000
  351.0000     -0.0002
  352.0000     -0.0002
  353.0000      0.0000
  354.0000     -0.0001
  355.0000     -0.0003
  356.0000      0.0001
  357.0000     -0.0002
  358.0000      0.0019
  359.0000     -0.0008
  360.0000      0.0018
  361.0000      0.0016
  362.0000      0.0011
  363.0000      0.0009
  364.0000      0.0015
  365.0000     -0.0002
  366.0000      0.0007
  367.0000      0.0015
  368.0000      0.0003
  369.0000      0.0011
  370.0000      0.0006
  371.0000      0.0005
  372.0000      0.0006
  373.0000      0.0006
  374.0000      0.0001
  375.0000      0.0011
  376.0000     -0.0000
  377.0000      0.0006
  378.0000     -0.0001
  379.0000      0.0011
  380.0000     -0.0005
  381.0000      0.0007
  382.0000      0.0010
  383.0000      0.0004
  384.0000      0.0002
  385.0000      0.0009
  386.0000      0.0007
  387.0000      0.0006
  388.0000      0.0005
  389.0000      0.0003
  390.0000      0.0001
  391.0000      0.0003
  392.0000      0.0007
  393.0000      0.0003
  394.0000      0.0008
  395.0000      0.0001
  396.0000      0.0008
  397.0000      0.0004
  398.0000      0.0008
  399.0000      0.0003
  400.0000      0.0005
  401.0000     -0.0000
  402.0000     -0.0001
  403.0000      0.0007
  404.0000      0.0005
  405.0000      0.0003
  406.0000      0.0003
  407.0000      0.0006
  408.0000     -0.0002
  409.0000      0.0003
  410.0000      0.0004
  411.0000      0.0004
  412.0000      0.0002
  413.0000      0.0008
  414.0000     -0.0001
  415.0000      0.0002
  416.0000      0.0001
  417.0000      0.0001
  418.0000     -0.0000
  419.0000      0.0001
  420.0000      0.0001
  421.0000      0.0001
  422.0000     -0.0000
  423.0000      0.0001
  424.0000     -0.0000
  425.0000      0.0001
  426.0000     -0.0001
  427.0000     -0.0000
  428.0000     -0.0001
  429.0000     -0.0000
  430.0000      0.0000
  431.0000     -0.0001
  432.0000     -0.0000
  433.0000     -0.0000
  434.0000     -0.0001
  435.0000     -0.0000
  436.0000     -0.0000
  437.0000     -0.0000
  438.0000     -0.0001
  439.0000     -0.0001
  440.0000     -0.0002
  441.0000     -0.0002
  442.0000     -0.0001
  443.0000     -0.0001
  444.0000     -0.0002
  445.0000     -0.0002
  446.0000     -0.0002
  447.0000     -0.0002
  448.0000     -0.0003
  449.0000     -0.0003
  450.0000     -0.0003
  451.0000     -0.0002
  452.0000     -0.0003
  453.0000     -0.0003
  454.0000     -0.0003
  455.0000     -0.0003
  456.0000     -0.0004
  457.0000     -0.0003
  458.0000     -0.0003
  459.0000     -0.0003
  460.0000     -0.0003
  461.0000     -0.0003
  462.0000     -0.0002
  463.0000     -0.0002
  464.0000     -0.0001
  465.0000     -0.0002
  466.0000     -0.0002
  467.0000     -0.0001
  468.0000     -0.0001
  469.0000     -0.0001
  470.0000     -0.0002
  471.0000     -0.0001
  472.0000     -0.0001
  473.0000     -0.0001
  474.0000     -0.0001
  475.0000     -0.0001
  476.0000     -0.0002
  477.0000     -0.0002
  478.0000     -0.0002
  479.0000     -0.0002
  480.0000     -0.0003
  481.0000     -0.0003
  482.0000     -0.0004
  483.0000     -0.0004
  484.0000     -0.0003
  485.0000     -0.0004
  486.0000     -0.0004
  487.0000     -0.0004
  488.0000     -0.0004
  489.0000     -0.0004
  490.0000     -0.0004
  491.0000     -0.0004
  492.0000     -0.0004
  493.0000     -0.0004
  494.0000     -0.0004
  495.0000     -0.0004
  496.0000     -0.0005
  497.0000     -0.0004
  498.0000     -0.0005
  499.0000     -0.0005
  500.0000     -0.0004
  501.0000     -0.0004
  502.0000     -0.0004
  503.0000     -0.0004
  504.0000     -0.0005
  505.0000     -0.0005
  506.0000     -0.0004
  507.0000     -0.0005
  508.0000     -0.0005
  509.0000     -0.0005
  510.0000     -0.0005
  511.0000     -0.0005
  512.0000     -0.0005
  513.0000     -0.0005
  514.0000     -0.0006
  515.0000     -0.0005
  516.0000     -0.0006
  517.0000     -0.0006
  518.0000     -0.0005
  519.0000     -0.0006
  520.0000     -0.0005
  521.0000     -0.0006
  522.0000     -0.0006
  523.0000     -0.0006
  524.0000     -0.0006
  525.0000     -0.0006
  526.0000     -0.0006
  527.0000     -0.0006
  528.0000     -0.0006
  529.0000     -0.0006
  530.0000     -0.0006
  531.0000     -0.0007
  532.0000     -0.0007
  533.0000     -0.0006
  534.0000     -0.0007
  535.0000     -0.0007
  536.0000     -0.0007
  537.0000     -0.0007
  538.0000     -0.0007
  539.0000     -0.0007
  540.0000     -0.0007
  541.0000     -0.0007
  542.0000     -0.0007
  543.0000     -0.0007
  544.0000     -0.0007
  545.0000     -0.0007
  546.0000     -0.0008
  547.0000     -0.0008
  548.0000     -0.0008
  549.0000     -0.0008
  550.0000     -0.0008
  551.0000     -0.0009
  552.0000     -0.0008
  553.0000     -0.0009
  554.0000     -0.0008
  555.0000     -0.0008
  556.0000     -0.0008
  557.0000     -0.0003
  558.0000     -0.0003
  559.0000     -0.0003
  560.0000     -0.0004
  561.0000     -0.0004
  562.0000     -0.0004
  563.0000     -0.0005
  564.0000     -0.0005
  565.0000     -0.0005
  566.0000     -0.0005
  567.0000     -0.0006
  568.0000     -0.0006
  569.0000     -0.0006
  570.0000     -0.0007
  571.0000     -0.0007
  572.0000     -0.0007
  573.0000     -0.0007
  574.0000     -0.0007
  575.0000     -0.0007
  576.0000     -0.0007
  577.0000     -0.0007
  578.0000     -0.0007
  579.0000     -0.0008
  580.0000     -0.0008
  581.0000     -0.0008
  582.0000     -0.0008
  583.0000     -0.0008
  584.0000     -0.0008
  585.0000     -0.0008
  586.0000     -0.0008
  587.0000     -0.0008
  588.0000     -0.0008
  589.0000     -0.0009
  590.0000     -0.0009
  591.0000     -0.0008
  592.0000     -0.0009
  593.0000     -0.0009
  594.0000     -0.0008
  595.0000     -0.0009
  596.0000     -0.0008
  597.0000     -0.0009
  598.0000     -0.0009
  599.0000     -0.0008
  600.0000     -0.0009
  601.0000     -0.0009
  602.0000     -0.0009
  603.0000     -0.0009
  604.0000     -0.0009
  605.0000     -0.0009
  606.0000     -0.0009
  607.0000     -0.0009
  608.0000     -0.0009
  609.0000     -0.0009
  610.0000     -0.0009
  611.0000     -0.0009
  612.0000     -0.0009
  613.0000     -0.0009
  614.0000     -0.0009
  615.0000     -0.0009
  616.0000     -0.0009
  617.0000     -0.0009
  618.0000     -0.0009
  619.0000     -0.0009
  620.0000     -0.0009
  621.0000     -0.0009
  622.0000     -0.0009
  623.0000     -0.0009
  624.0000     -0.0009
  625.0000     -0.0008
  626.0000     -0.0008
  627.0000     -0.0008
  628.0000     -0.0008
  629.0000     -0.0008
  630.0000     -0.0007
  631.0000     -0.0008
  632.0000     -0.0008
  633.0000     -0.0007
  634.0000     -0.0007
  635.0000     -0.0008
  636.0000     -0.0007
  637.0000     -0.0008
  638.0000     -0.0008
  639.0000     -0.0008
  640.0000     -0.0008
  641.0000     -0.0008
  642.0000     -0.0008
  643.0000     -0.0008
  644.0000     -0.0008
  645.0000     -0.0008
  646.0000     -0.0008
  647.0000     -0.0007
  648.0000     -0.0007
  649.0000     -0.0007
  650.0000     -0.0007
  651.0000     -0.0007
  652.0000     -0.0007
  653.0000     -0.0007
  654.0000     -0.0007
  655.0000     -0.0006
  656.0000     -0.0006
  657.0000     -0.0006
  658.0000     -0.0006
  659.0000     -0.0006
  660.0000     -0.0006
  661.0000     -0.0006
  662.0000     -0.0006
  663.0000     -0.0006
  664.0000     -0.0006
  665.0000     -0.0006
  666.0000     -0.0005
  667.0000     -0.0005
  668.0000     -0.0005
  669.0000     -0.0005
  670.0000     -0.0005
  671.0000     -0.0005
  672.0000     -0.0006
  673.0000     -0.0005
  674.0000     -0.0005
  675.0000     -0.0005
  676.0000     -0.0005
  677.0000     -0.0005
  678.0000     -0.0005
  679.0000     -0.0005
  680.0000     -0.0005
  681.0000     -0.0005
  682.0000     -0.0005
  683.0000     -0.0005
  684.0000     -0.0005
  685.0000     -0.0005
  686.0000     -0.0005
  687.0000     -0.0005
  688.0000     -0.0005
  689.0000     -0.0005
  690.0000     -0.0005
  691.0000     -0.0005
  692.0000     -0.0005
  693.0000     -0.0005
  694.0000     -0.0005
  695.0000     -0.0005
  696.0000     -0.0005
  697.0000     -0.0005
  698.0000     -0.0005
  699.0000     -0.0005
  700.0000     -0.0005
  701.0000     -0.0005
  702.0000     -0.0005
  703.0000     -0.0005
  704.0000     -0.0004
  705.0000     -0.0005
  706.0000     -0.0005
  707.0000     -0.0005
  708.0000     -0.0005
  709.0000     -0.0005
  710.0000     -0.0005
  711.0000     -0.0005
  712.0000     -0.0005
  713.0000     -0.0005
  714.0000     -0.0005
  715.0000     -0.0005
  716.0000     -0.0005
  717.0000     -0.0004
  718.0000     -0.0005
  719.0000     -0.0005
  720.0000     -0.0005
  721.0000     -0.0005
  722.0000     -0.0005
  723.0000     -0.0005
  724.0000     -0.0005
  725.0000     -0.0005
  726.0000     -0.0005
  727.0000     -0.0005
  728.0000     -0.0005
  729.0000     -0.0006
  730.0000     -0.0005
  731.0000     -0.0006
  732.0000     -0.0006
  733.0000     -0.0006
  734.0000     -0.0006
  735.0000     -0.0006
  736.0000     -0.0005
  737.0000     -0.0005
  738.0000     -0.0005
  739.0000     -0.0005
  740.0000     -0.0005
  741.0000     -0.0006
  742.0000     -0.0006
  743.0000     -0.0006
  744.0000     -0.0006
  745.0000     -0.0006
  746.0000     -0.0006
  747.0000     -0.0006
  748.0000     -0.0006
  749.0000     -0.0006
  750.0000     -0.0005
  751.0000     -0.0006
  752.0000     -0.0006
  753.0000     -0.0006
  754.0000     -0.0006
  755.0000     -0.0005
  756.0000     -0.0006
  757.0000     -0.0006
  758.0000     -0.0006
  759.0000     -0.0006
  760.0000     -0.0006
  761.0000     -0.0006
  762.0000     -0.0006
  763.0000     -0.0006
  764.0000     -0.0006
  765.0000     -0.0006
  766.0000     -0.0006
  767.0000     -0.0006
  768.0000     -0.0006
  769.0000     -0.0006
  770.0000     -0.0006
  771.0000     -0.0006
  772.0000     -0.0006
  773.0000     -0.0006
  774.0000     -0.0006
  775.0000     -0.0006
  776.0000     -0.0006
  777.0000     -0.0006
  778.0000     -0.0007
  779.0000     -0.0006
  780.0000     -0.0006
  781.0000     -0.0006
  782.0000     -0.0006
  783.0000     -0.0007
  784.0000     -0.0006
  785.0000     -0.0006
  786.0000     -0.0006
  787.0000     -0.0006
  788.0000     -0.0006
  789.0000     -0.0006
  790.0000     -0.0006
  791.0000     -0.0006
  792.0000     -0.0006
  793.0000     -0.0006
  794.0000     -0.0006
  795.0000     -0.0006
  796.0000     -0.0006
  797.0000     -0.0007
  798.0000     -0.0007
  799.0000     -0.0007
  800.0000     -0.0007
