Start Wavelength:    200.0000
End Wavelength:    800.0000
Read Mode:  ABS
Read Average:      0.1000
Nanometer Interval:      1.0000
Time:      0.0000

  200.0000     -0.0012
  201.0000     -0.0023
  202.0000     -0.0018
  203.0000     -0.0022
  204.0000     -0.0007
  205.0000     -0.0008
  206.0000     -0.0011
  207.0000     -0.0015
  208.0000     -0.0022
  209.0000     -0.0010
  210.0000     -0.0012
  211.0000     -0.0013
  212.0000     -0.0011
  213.0000     -0.0016
  214.0000     -0.0013
  215.0000     -0.0013
  216.0000     -0.0007
  217.0000     -0.0010
  218.0000     -0.0005
  219.0000     -0.0003
  220.0000     -0.0009
  221.0000     -0.0008
  222.0000     -0.0004
  223.0000     -0.0005
  224.0000     -0.0002
  225.0000     -0.0004
  226.0000     -0.0002
  227.0000     -0.0001
  228.0000     -0.0001
  229.0000     -0.0000
  230.0000     -0.0003
  231.0000     -0.0001
  232.0000     -0.0005
  233.0000     -0.0004
  234.0000     -0.0000
  235.0000     -0.0005
  236.0000     -0.0000
  237.0000     -0.0002
  238.0000      0.0000
  239.0000     -0.0004
  240.0000     -0.0005
  241.0000     -0.0004
  242.0000     -0.0003
  243.0000     -0.0000
  244.0000     -0.0006
  245.0000     -0.0004
  246.0000     -0.0006
  247.0000     -0.0009
  248.0000     -0.0003
  249.0000     -0.0001
  250.0000     -0.0008
  251.0000     -0.0004
  252.0000     -0.0007
  253.0000     -0.0006
  254.0000     -0.0005
  255.0000     -0.0004
  256.0000     -0.0008
  257.0000     -0.0006
  258.0000     -0.0004
  259.0000     -0.0010
  260.0000     -0.0007
  261.0000     -0.0005
  262.0000     -0.0006
  263.0000     -0.0007
  264.0000     -0.0005
  265.0000     -0.0011
  266.0000     -0.0007
  267.0000     -0.0004
  268.0000     -0.0005
  269.0000     -0.0009
  270.0000     -0.0007
  271.0000     -0.0014
  272.0000     -0.0006
  273.0000     -0.0003
  274.0000     -0.0001
  275.0000     -0.0007
  276.0000     -0.0007
  277.0000     -0.0006
  278.0000     -0.0005
  279.0000     -0.0002
  280.0000     -0.0004
  281.0000     -0.0003
  282.0000     -0.0002
  283.0000     -0.0004
  284.0000     -0.0004
  285.0000     -0.0004
  286.0000     -0.0001
  287.0000     -0.0005
  288.0000     -0.0002
  289.0000     -0.0004
  290.0000     -0.0006
  291.0000     -0.0004
  292.0000     -0.0003
  293.0000     -0.0004
  294.0000      0.0002
  295.0000     -0.0005
  296.0000     -0.0006
  297.0000     -0.0002
  298.0000     -0.0006
  299.0000      0.0001
  300.0000     -0.0003
  301.0000     -0.0008
  302.0000     -0.0007
  303.0000     -0.0008
  304.0000     -0.0008
  305.0000     -0.0002
  306.0000     -0.0003
  307.0000     -0.0007
  308.0000     -0.0005
  309.0000     -0.0009
  310.0000      0.0001
  311.0000      0.0001
  312.0000     -0.0005
  313.0000     -0.0006
  314.0000     -0.0004
  315.0000     -0.0005
  316.0000     -0.0005
  317.0000     -0.0002
  318.0000     -0.0003
  319.0000     -0.0005
  320.0000     -0.0005
  321.0000     -0.0006
  322.0000      0.0001
  323.0000     -0.0000
  324.0000     -0.0003
  325.0000     -0.0001
  326.0000     -0.0002
  327.0000     -0.0001
  328.0000      0.0001
  329.0000      0.0002
  330.0000     -0.0000
  331.0000     -0.0000
  332.0000     -0.0003
  333.0000      0.0002
  334.0000     -0.0001
  335.0000     -0.0003
  336.0000     -0.0004
  337.0000     -0.0000
  338.0000     -0.0004
  339.0000     -0.0000
  340.0000      0.0002
  341.0000     -0.0001
  342.0000     -0.0000
  343.0000      0.0005
  344.0000     -0.0003
  345.0000     -0.0002
  346.0000      0.0001
  347.0000     -0.0002
  348.0000     -0.0002
  349.0000      0.0002
  350.0000     -0.0003
  351.0000     -0.0004
  352.0000     -0.0000
  353.0000     -0.0003
  354.0000     -0.0001
  355.0000     -0.0004
  356.0000     -0.0003
  357.0000      0.0002
  358.0000      0.0009
  359.0000      0.0004
  360.0000     -0.0015
  361.0000     -0.0009
  362.0000     -0.0008
  363.0000     -0.0000
  364.0000     -0.0002
  365.0000     -0.0004
  366.0000      0.0002
  367.0000     -0.0000
  368.0000     -0.0005
  369.0000     -0.0004
  370.0000      0.0017
  371.0000      0.0007
  372.0000     -0.0013
  373.0000      0.0008
  374.0000      0.0006
  375.0000      0.0001
  376.0000      0.0011
  377.0000     -0.0006
  378.0000     -0.0005
  379.0000     -0.0001
  380.0000      0.0004
  381.0000      0.0001
  382.0000      0.0005
  383.0000     -0.0005
  384.0000     -0.0007
  385.0000      0.0004
  386.0000      0.0003
  387.0000      0.0002
  388.0000      0.0002
  389.0000      0.0001
  390.0000      0.0001
  391.0000      0.0001
  392.0000     -0.0002
  393.0000      0.0004
  394.0000     -0.0001
  395.0000     -0.0000
  396.0000     -0.0002
  397.0000      0.0006
  398.0000      0.0003
  399.0000      0.0005
  400.0000     -0.0003
  401.0000     -0.0004
  402.0000      0.0002
  403.0000     -0.0004
  404.0000     -0.0002
  405.0000     -0.0003
  406.0000     -0.0005
  407.0000     -0.0000
  408.0000      0.0001
  409.0000     -0.0003
  410.0000     -0.0002
  411.0000      0.0001
  412.0000     -0.0004
  413.0000     -0.0001
  414.0000      0.0001
  415.0000     -0.0004
  416.0000     -0.0005
  417.0000     -0.0005
  418.0000     -0.0004
  419.0000     -0.0005
  420.0000     -0.0003
  421.0000     -0.0005
  422.0000     -0.0005
  423.0000     -0.0005
  424.0000     -0.0006
  425.0000     -0.0006
  426.0000     -0.0005
  427.0000     -0.0005
  428.0000     -0.0005
  429.0000     -0.0005
  430.0000     -0.0006
  431.0000     -0.0006
  432.0000     -0.0005
  433.0000     -0.0006
  434.0000     -0.0006
  435.0000     -0.0005
  436.0000     -0.0005
  437.0000     -0.0006
  438.0000     -0.0006
  439.0000     -0.0006
  440.0000     -0.0005
  441.0000     -0.0007
  442.0000     -0.0008
  443.0000     -0.0007
  444.0000     -0.0008
  445.0000     -0.0006
  446.0000     -0.0007
  447.0000     -0.0007
  448.0000     -0.0007
  449.0000     -0.0008
  450.0000     -0.0008
  451.0000     -0.0007
  452.0000     -0.0009
  453.0000     -0.0009
  454.0000     -0.0008
  455.0000     -0.0008
  456.0000     -0.0008
  457.0000     -0.0009
  458.0000     -0.0008
  459.0000     -0.0009
  460.0000     -0.0008
  461.0000     -0.0008
  462.0000     -0.0008
  463.0000     -0.0007
  464.0000     -0.0007
  465.0000     -0.0006
  466.0000     -0.0005
  467.0000     -0.0005
  468.0000     -0.0006
  469.0000     -0.0005
  470.0000     -0.0005
  471.0000     -0.0005
  472.0000     -0.0004
  473.0000     -0.0005
  474.0000     -0.0005
  475.0000     -0.0005
  476.0000     -0.0005
  477.0000     -0.0005
  478.0000     -0.0006
  479.0000     -0.0007
  480.0000     -0.0006
  481.0000     -0.0007
  482.0000     -0.0007
  483.0000     -0.0007
  484.0000     -0.0007
  485.0000     -0.0007
  486.0000     -0.0007
  487.0000     -0.0007
  488.0000     -0.0007
  489.0000     -0.0007
  490.0000     -0.0007
  491.0000     -0.0008
  492.0000     -0.0007
  493.0000     -0.0007
  494.0000     -0.0007
  495.0000     -0.0008
  496.0000     -0.0008
  497.0000     -0.0008
  498.0000     -0.0007
  499.0000     -0.0007
  500.0000     -0.0008
  501.0000     -0.0008
  502.0000     -0.0008
  503.0000     -0.0008
  504.0000     -0.0008
  505.0000     -0.0008
  506.0000     -0.0008
  507.0000     -0.0008
  508.0000     -0.0008
  509.0000     -0.0008
  510.0000     -0.0008
  511.0000     -0.0008
  512.0000     -0.0008
  513.0000     -0.0008
  514.0000     -0.0008
  515.0000     -0.0008
  516.0000     -0.0008
  517.0000     -0.0008
  518.0000     -0.0008
  519.0000     -0.0008
  520.0000     -0.0008
  521.0000     -0.0008
  522.0000     -0.0008
  523.0000     -0.0008
  524.0000     -0.0008
  525.0000     -0.0008
  526.0000     -0.0009
  527.0000     -0.0008
  528.0000     -0.0008
  529.0000     -0.0008
  530.0000     -0.0008
  531.0000     -0.0008
  532.0000     -0.0008
  533.0000     -0.0008
  534.0000     -0.0008
  535.0000     -0.0009
  536.0000     -0.0009
  537.0000     -0.0008
  538.0000     -0.0009
  539.0000     -0.0008
  540.0000     -0.0008
  541.0000     -0.0009
  542.0000     -0.0009
  543.0000     -0.0009
  544.0000     -0.0009
  545.0000     -0.0009
  546.0000     -0.0009
  547.0000     -0.0009
  548.0000     -0.0009
  549.0000     -0.0009
  550.0000     -0.0009
  551.0000     -0.0009
  552.0000     -0.0010
  553.0000     -0.0010
  554.0000     -0.0010
  555.0000     -0.0010
  556.0000     -0.0010
  557.0000     -0.0005
  558.0000     -0.0005
  559.0000     -0.0006
  560.0000     -0.0006
  561.0000     -0.0006
  562.0000     -0.0007
  563.0000     -0.0007
  564.0000     -0.0007
  565.0000     -0.0007
  566.0000     -0.0008
  567.0000     -0.0008
  568.0000     -0.0008
  569.0000     -0.0008
  570.0000     -0.0009
  571.0000     -0.0009
  572.0000     -0.0009
  573.0000     -0.0009
  574.0000     -0.0009
  575.0000     -0.0009
  576.0000     -0.0009
  577.0000     -0.0009
  578.0000     -0.0009
  579.0000     -0.0009
  580.0000     -0.0010
  581.0000     -0.0009
  582.0000     -0.0010
  583.0000     -0.0010
  584.0000     -0.0010
  585.0000     -0.0010
  586.0000     -0.0010
  587.0000     -0.0010
  588.0000     -0.0010
  589.0000     -0.0010
  590.0000     -0.0010
  591.0000     -0.0010
  592.0000     -0.0010
  593.0000     -0.0010
  594.0000     -0.0010
  595.0000     -0.0010
  596.0000     -0.0010
  597.0000     -0.0010
  598.0000     -0.0010
  599.0000     -0.0010
  600.0000     -0.0010
  601.0000     -0.0010
  602.0000     -0.0010
  603.0000     -0.0010
  604.0000     -0.0010
  605.0000     -0.0010
  606.0000     -0.0010
  607.0000     -0.0010
  608.0000     -0.0010
  609.0000     -0.0010
  610.0000     -0.0010
  611.0000     -0.0010
  612.0000     -0.0010
  613.0000     -0.0010
  614.0000     -0.0010
  615.0000     -0.0010
  616.0000     -0.0010
  617.0000     -0.0010
  618.0000     -0.0010
  619.0000     -0.0011
  620.0000     -0.0010
  621.0000     -0.0010
  622.0000     -0.0011
  623.0000     -0.0010
  624.0000     -0.0010
  625.0000     -0.0010
  626.0000     -0.0010
  627.0000     -0.0010
  628.0000     -0.0009
  629.0000     -0.0009
  630.0000     -0.0009
  631.0000     -0.0009
  632.0000     -0.0009
  633.0000     -0.0009
  634.0000     -0.0009
  635.0000     -0.0008
  636.0000     -0.0009
  637.0000     -0.0008
  638.0000     -0.0008
  639.0000     -0.0008
  640.0000     -0.0008
  641.0000     -0.0008
  642.0000     -0.0008
  643.0000     -0.0008
  644.0000     -0.0008
  645.0000     -0.0008
  646.0000     -0.0008
  647.0000     -0.0008
  648.0000     -0.0008
  649.0000     -0.0008
  650.0000     -0.0008
  651.0000     -0.0008
  652.0000     -0.0008
  653.0000     -0.0007
  654.0000     -0.0007
  655.0000     -0.0007
  656.0000     -0.0007
  657.0000     -0.0007
  658.0000     -0.0007
  659.0000     -0.0007
  660.0000     -0.0007
  661.0000     -0.0007
  662.0000     -0.0007
  663.0000     -0.0006
  664.0000     -0.0006
  665.0000     -0.0006
  666.0000     -0.0006
  667.0000     -0.0006
  668.0000     -0.0006
  669.0000     -0.0006
  670.0000     -0.0006
  671.0000     -0.0006
  672.0000     -0.0006
  673.0000     -0.0006
  674.0000     -0.0006
  675.0000     -0.0006
  676.0000     -0.0006
  677.0000     -0.0006
  678.0000     -0.0006
  679.0000     -0.0006
  680.0000     -0.0006
  681.0000     -0.0006
  682.0000     -0.0005
  683.0000     -0.0006
  684.0000     -0.0006
  685.0000     -0.0006
  686.0000     -0.0006
  687.0000     -0.0006
  688.0000     -0.0006
  689.0000     -0.0005
  690.0000     -0.0006
  691.0000     -0.0006
  692.0000     -0.0006
  693.0000     -0.0006
  694.0000     -0.0006
  695.0000     -0.0006
  696.0000     -0.0006
  697.0000     -0.0006
  698.0000     -0.0006
  699.0000     -0.0006
  700.0000     -0.0006
  701.0000     -0.0006
  702.0000     -0.0005
  703.0000     -0.0006
  704.0000     -0.0006
  705.0000     -0.0005
  706.0000     -0.0005
  707.0000     -0.0006
  708.0000     -0.0005
  709.0000     -0.0005
  710.0000     -0.0006
  711.0000     -0.0006
  712.0000     -0.0005
  713.0000     -0.0006
  714.0000     -0.0005
  715.0000     -0.0006
  716.0000     -0.0005
  717.0000     -0.0005
  718.0000     -0.0006
  719.0000     -0.0006
  720.0000     -0.0006
  721.0000     -0.0006
  722.0000     -0.0006
  723.0000     -0.0006
  724.0000     -0.0005
  725.0000     -0.0006
  726.0000     -0.0006
  727.0000     -0.0006
  728.0000     -0.0006
  729.0000     -0.0005
  730.0000     -0.0005
  731.0000     -0.0006
  732.0000     -0.0006
  733.0000     -0.0005
  734.0000     -0.0006
  735.0000     -0.0006
  736.0000     -0.0004
  737.0000     -0.0004
  738.0000     -0.0004
  739.0000     -0.0005
  740.0000     -0.0005
  741.0000     -0.0005
  742.0000     -0.0005
  743.0000     -0.0005
  744.0000     -0.0005
  745.0000     -0.0005
  746.0000     -0.0005
  747.0000     -0.0005
  748.0000     -0.0005
  749.0000     -0.0004
  750.0000     -0.0004
  751.0000     -0.0004
  752.0000     -0.0005
  753.0000     -0.0005
  754.0000     -0.0005
  755.0000     -0.0005
  756.0000     -0.0005
  757.0000     -0.0005
  758.0000     -0.0005
  759.0000     -0.0006
  760.0000     -0.0005
  761.0000     -0.0005
  762.0000     -0.0005
  763.0000     -0.0005
  764.0000     -0.0005
  765.0000     -0.0005
  766.0000     -0.0005
  767.0000     -0.0006
  768.0000     -0.0005
  769.0000     -0.0005
  770.0000     -0.0005
  771.0000     -0.0006
  772.0000     -0.0006
  773.0000     -0.0005
  774.0000     -0.0005
  775.0000     -0.0005
  776.0000     -0.0005
  777.0000     -0.0005
  778.0000     -0.0005
  779.0000     -0.0005
  780.0000     -0.0005
  781.0000     -0.0005
  782.0000     -0.0005
  783.0000     -0.0005
  784.0000     -0.0005
  785.0000     -0.0005
  786.0000     -0.0005
  787.0000     -0.0005
  788.0000     -0.0005
  789.0000     -0.0005
  790.0000     -0.0005
  791.0000     -0.0005
  792.0000     -0.0005
  793.0000     -0.0005
  794.0000     -0.0005
  795.0000     -0.0005
  796.0000     -0.0005
  797.0000     -0.0005
  798.0000     -0.0006
  799.0000     -0.0005
  800.0000     -0.0006
