Start Wavelength:    200.0000
End Wavelength:    800.0000
Read Mode:  ABS
Read Average:      0.1000
Nanometer Interval:      1.0000
Time:      0.0000

  200.0000      0.0017
  201.0000      0.0014
  202.0000      0.0013
  203.0000      0.0004
  204.0000      0.0004
  205.0000      0.0013
  206.0000      0.0010
  207.0000      0.0011
  208.0000      0.0004
  209.0000      0.0006
  210.0000      0.0008
  211.0000      0.0009
  212.0000      0.0010
  213.0000      0.0008
  214.0000      0.0005
  215.0000      0.0012
  216.0000      0.0012
  217.0000      0.0009
  218.0000      0.0009
  219.0000      0.0009
  220.0000      0.0008
  221.0000      0.0004
  222.0000      0.0014
  223.0000      0.0007
  224.0000      0.0007
  225.0000      0.0011
  226.0000      0.0008
  227.0000      0.0004
  228.0000      0.0009
  229.0000      0.0008
  230.0000      0.0007
  231.0000      0.0008
  232.0000      0.0009
  233.0000      0.0008
  234.0000      0.0009
  235.0000      0.0006
  236.0000      0.0008
  237.0000      0.0008
  238.0000      0.0008
  239.0000      0.0010
  240.0000      0.0007
  241.0000      0.0006
  242.0000      0.0011
  243.0000      0.0007
  244.0000      0.0008
  245.0000      0.0003
  246.0000      0.0003
  247.0000     -0.0001
  248.0000      0.0002
  249.0000      0.0004
  250.0000     -0.0002
  251.0000      0.0004
  252.0000      0.0006
  253.0000     -0.0002
  254.0000      0.0002
  255.0000      0.0002
  256.0000      0.0002
  257.0000      0.0001
  258.0000      0.0003
  259.0000      0.0002
  260.0000     -0.0003
  261.0000      0.0002
  262.0000      0.0001
  263.0000     -0.0005
  264.0000     -0.0000
  265.0000     -0.0003
  266.0000      0.0005
  267.0000      0.0005
  268.0000      0.0001
  269.0000     -0.0001
  270.0000     -0.0000
  271.0000      0.0002
  272.0000      0.0002
  273.0000     -0.0002
  274.0000     -0.0001
  275.0000     -0.0002
  276.0000      0.0003
  277.0000     -0.0002
  278.0000     -0.0002
  279.0000      0.0002
  280.0000      0.0002
  281.0000     -0.0000
  282.0000      0.0005
  283.0000     -0.0001
  284.0000     -0.0001
  285.0000      0.0003
  286.0000      0.0003
  287.0000     -0.0002
  288.0000      0.0002
  289.0000     -0.0001
  290.0000      0.0003
  291.0000     -0.0000
  292.0000      0.0007
  293.0000     -0.0003
  294.0000      0.0003
  295.0000      0.0004
  296.0000     -0.0001
  297.0000      0.0002
  298.0000     -0.0001
  299.0000     -0.0004
  300.0000     -0.0000
  301.0000      0.0001
  302.0000      0.0002
  303.0000     -0.0000
  304.0000     -0.0002
  305.0000      0.0003
  306.0000      0.0001
  307.0000      0.0004
  308.0000      0.0001
  309.0000     -0.0001
  310.0000      0.0007
  311.0000      0.0004
  312.0000      0.0003
  313.0000      0.0001
  314.0000     -0.0000
  315.0000     -0.0003
  316.0000      0.0004
  317.0000      0.0004
  318.0000      0.0001
  319.0000     -0.0000
  320.0000     -0.0003
  321.0000     -0.0000
  322.0000      0.0001
  323.0000      0.0001
  324.0000      0.0005
  325.0000      0.0001
  326.0000      0.0001
  327.0000      0.0006
  328.0000      0.0002
  329.0000     -0.0000
  330.0000      0.0001
  331.0000      0.0001
  332.0000      0.0003
  333.0000      0.0001
  334.0000      0.0002
  335.0000     -0.0001
  336.0000      0.0001
  337.0000      0.0005
  338.0000     -0.0000
  339.0000     -0.0001
  340.0000     -0.0002
  341.0000     -0.0003
  342.0000     -0.0001
  343.0000     -0.0000
  344.0000      0.0004
  345.0000     -0.0003
  346.0000     -0.0003
  347.0000     -0.0001
  348.0000     -0.0000
  349.0000     -0.0003
  350.0000     -0.0003
  351.0000     -0.0002
  352.0000      0.0000
  353.0000      0.0002
  354.0000      0.0002
  355.0000     -0.0003
  356.0000     -0.0003
  357.0000     -0.0000
  358.0000      0.0007
  359.0000     -0.0004
  360.0000      0.0006
  361.0000      0.0002
  362.0000     -0.0004
  363.0000      0.0006
  364.0000      0.0006
  365.0000     -0.0011
  366.0000      0.0007
  367.0000     -0.0002
  368.0000      0.0003
  369.0000      0.0005
  370.0000      0.0015
  371.0000     -0.0010
  372.0000     -0.0008
  373.0000      0.0006
  374.0000     -0.0003
  375.0000      0.0006
  376.0000      0.0005
  377.0000     -0.0005
  378.0000     -0.0008
  379.0000     -0.0001
  380.0000      0.0002
  381.0000      0.0001
  382.0000     -0.0006
  383.0000      0.0003
  384.0000      0.0002
  385.0000     -0.0004
  386.0000     -0.0000
  387.0000     -0.0002
  388.0000     -0.0006
  389.0000      0.0002
  390.0000     -0.0004
  391.0000     -0.0003
  392.0000     -0.0008
  393.0000     -0.0000
  394.0000      0.0001
  395.0000     -0.0003
  396.0000     -0.0005
  397.0000     -0.0003
  398.0000     -0.0001
  399.0000     -0.0001
  400.0000     -0.0004
  401.0000     -0.0008
  402.0000     -0.0004
  403.0000     -0.0004
  404.0000      0.0003
  405.0000     -0.0000
  406.0000     -0.0006
  407.0000     -0.0003
  408.0000     -0.0005
  409.0000     -0.0000
  410.0000     -0.0006
  411.0000     -0.0007
  412.0000     -0.0000
  413.0000     -0.0004
  414.0000     -0.0006
  415.0000     -0.0008
  416.0000     -0.0004
  417.0000     -0.0004
  418.0000     -0.0003
  419.0000     -0.0003
  420.0000     -0.0005
  421.0000     -0.0004
  422.0000     -0.0003
  423.0000     -0.0004
  424.0000     -0.0004
  425.0000     -0.0004
  426.0000     -0.0004
  427.0000     -0.0003
  428.0000     -0.0003
  429.0000     -0.0004
  430.0000     -0.0004
  431.0000     -0.0003
  432.0000     -0.0003
  433.0000     -0.0003
  434.0000     -0.0004
  435.0000     -0.0003
  436.0000     -0.0003
  437.0000     -0.0003
  438.0000     -0.0003
  439.0000     -0.0003
  440.0000     -0.0004
  441.0000     -0.0004
  442.0000     -0.0003
  443.0000     -0.0005
  444.0000     -0.0006
  445.0000     -0.0004
  446.0000     -0.0005
  447.0000     -0.0005
  448.0000     -0.0005
  449.0000     -0.0005
  450.0000     -0.0005
  451.0000     -0.0004
  452.0000     -0.0005
  453.0000     -0.0005
  454.0000     -0.0005
  455.0000     -0.0004
  456.0000     -0.0005
  457.0000     -0.0004
  458.0000     -0.0004
  459.0000     -0.0004
  460.0000     -0.0004
  461.0000     -0.0003
  462.0000     -0.0004
  463.0000     -0.0004
  464.0000     -0.0003
  465.0000     -0.0003
  466.0000     -0.0004
  467.0000     -0.0003
  468.0000     -0.0003
  469.0000     -0.0004
  470.0000     -0.0004
  471.0000     -0.0003
  472.0000     -0.0003
  473.0000     -0.0004
  474.0000     -0.0003
  475.0000     -0.0003
  476.0000     -0.0004
  477.0000     -0.0004
  478.0000     -0.0004
  479.0000     -0.0004
  480.0000     -0.0004
  481.0000     -0.0004
  482.0000     -0.0004
  483.0000     -0.0004
  484.0000     -0.0003
  485.0000     -0.0005
  486.0000     -0.0004
  487.0000     -0.0005
  488.0000     -0.0005
  489.0000     -0.0005
  490.0000     -0.0005
  491.0000     -0.0005
  492.0000     -0.0005
  493.0000     -0.0005
  494.0000     -0.0005
  495.0000     -0.0005
  496.0000     -0.0006
  497.0000     -0.0005
  498.0000     -0.0006
  499.0000     -0.0006
  500.0000     -0.0006
  501.0000     -0.0006
  502.0000     -0.0006
  503.0000     -0.0006
  504.0000     -0.0006
  505.0000     -0.0006
  506.0000     -0.0007
  507.0000     -0.0007
  508.0000     -0.0007
  509.0000     -0.0007
  510.0000     -0.0007
  511.0000     -0.0006
  512.0000     -0.0007
  513.0000     -0.0006
  514.0000     -0.0006
  515.0000     -0.0006
  516.0000     -0.0006
  517.0000     -0.0006
  518.0000     -0.0006
  519.0000     -0.0006
  520.0000     -0.0006
  521.0000     -0.0006
  522.0000     -0.0006
  523.0000     -0.0006
  524.0000     -0.0006
  525.0000     -0.0006
  526.0000     -0.0006
  527.0000     -0.0006
  528.0000     -0.0006
  529.0000     -0.0006
  530.0000     -0.0006
  531.0000     -0.0006
  532.0000     -0.0006
  533.0000     -0.0006
  534.0000     -0.0006
  535.0000     -0.0006
  536.0000     -0.0006
  537.0000     -0.0006
  538.0000     -0.0006
  539.0000     -0.0007
  540.0000     -0.0007
  541.0000     -0.0007
  542.0000     -0.0007
  543.0000     -0.0007
  544.0000     -0.0007
  545.0000     -0.0007
  546.0000     -0.0007
  547.0000     -0.0007
  548.0000     -0.0007
  549.0000     -0.0006
  550.0000     -0.0006
  551.0000     -0.0007
  552.0000     -0.0007
  553.0000     -0.0007
  554.0000     -0.0007
  555.0000     -0.0007
  556.0000     -0.0007
  557.0000     -0.0007
  558.0000     -0.0007
  559.0000     -0.0007
  560.0000     -0.0007
  561.0000     -0.0007
  562.0000     -0.0007
  563.0000     -0.0007
  564.0000     -0.0008
  565.0000     -0.0008
  566.0000     -0.0007
  567.0000     -0.0008
  568.0000     -0.0007
  569.0000     -0.0008
  570.0000     -0.0007
  571.0000     -0.0007
  572.0000     -0.0007
  573.0000     -0.0008
  574.0000     -0.0008
  575.0000     -0.0008
  576.0000     -0.0008
  577.0000     -0.0008
  578.0000     -0.0008
  579.0000     -0.0008
  580.0000     -0.0008
  581.0000     -0.0008
  582.0000     -0.0008
  583.0000     -0.0008
  584.0000     -0.0008
  585.0000     -0.0008
  586.0000     -0.0008
  587.0000     -0.0008
  588.0000     -0.0008
  589.0000     -0.0008
  590.0000     -0.0007
  591.0000     -0.0008
  592.0000     -0.0008
  593.0000     -0.0008
  594.0000     -0.0008
  595.0000     -0.0008
  596.0000     -0.0008
  597.0000     -0.0008
  598.0000     -0.0008
  599.0000     -0.0008
  600.0000     -0.0007
  601.0000     -0.0008
  602.0000     -0.0008
  603.0000     -0.0008
  604.0000     -0.0008
  605.0000     -0.0008
  606.0000     -0.0008
  607.0000     -0.0007
  608.0000     -0.0007
  609.0000     -0.0007
  610.0000     -0.0008
  611.0000     -0.0007
  612.0000     -0.0007
  613.0000     -0.0007
  614.0000     -0.0007
  615.0000     -0.0007
  616.0000     -0.0008
  617.0000     -0.0008
  618.0000     -0.0008
  619.0000     -0.0008
  620.0000     -0.0008
  621.0000     -0.0007
  622.0000     -0.0007
  623.0000     -0.0007
  624.0000     -0.0006
  625.0000     -0.0006
  626.0000     -0.0006
  627.0000     -0.0006
  628.0000     -0.0006
  629.0000     -0.0006
  630.0000     -0.0005
  631.0000     -0.0006
  632.0000     -0.0005
  633.0000     -0.0005
  634.0000     -0.0005
  635.0000     -0.0005
  636.0000     -0.0005
  637.0000     -0.0005
  638.0000     -0.0005
  639.0000     -0.0005
  640.0000     -0.0005
  641.0000     -0.0005
  642.0000     -0.0005
  643.0000     -0.0005
  644.0000     -0.0005
  645.0000     -0.0005
  646.0000     -0.0005
  647.0000     -0.0005
  648.0000     -0.0005
  649.0000     -0.0005
  650.0000     -0.0005
  651.0000     -0.0005
  652.0000     -0.0005
  653.0000     -0.0005
  654.0000     -0.0004
  655.0000     -0.0004
  656.0000     -0.0004
  657.0000     -0.0004
  658.0000     -0.0004
  659.0000     -0.0004
  660.0000     -0.0005
  661.0000     -0.0004
  662.0000     -0.0004
  663.0000     -0.0004
  664.0000     -0.0004
  665.0000     -0.0004
  666.0000     -0.0004
  667.0000     -0.0004
  668.0000     -0.0004
  669.0000     -0.0004
  670.0000     -0.0004
  671.0000     -0.0004
  672.0000     -0.0005
  673.0000     -0.0004
  674.0000     -0.0004
  675.0000     -0.0004
  676.0000     -0.0004
  677.0000     -0.0004
  678.0000     -0.0004
  679.0000     -0.0004
  680.0000     -0.0004
  681.0000     -0.0004
  682.0000     -0.0004
  683.0000     -0.0003
  684.0000     -0.0004
  685.0000     -0.0003
  686.0000     -0.0004
  687.0000     -0.0004
  688.0000     -0.0003
  689.0000     -0.0003
  690.0000     -0.0003
  691.0000     -0.0004
  692.0000     -0.0004
  693.0000     -0.0003
  694.0000     -0.0003
  695.0000     -0.0004
  696.0000     -0.0004
  697.0000     -0.0004
  698.0000     -0.0003
  699.0000     -0.0003
  700.0000     -0.0004
  701.0000     -0.0003
  702.0000     -0.0004
  703.0000     -0.0004
  704.0000     -0.0003
  705.0000     -0.0004
  706.0000     -0.0004
  707.0000     -0.0004
  708.0000     -0.0003
  709.0000     -0.0004
  710.0000     -0.0003
  711.0000     -0.0003
  712.0000     -0.0003
  713.0000     -0.0003
  714.0000     -0.0003
  715.0000     -0.0003
  716.0000     -0.0003
  717.0000     -0.0003
  718.0000     -0.0003
  719.0000     -0.0003
  720.0000     -0.0002
  721.0000     -0.0003
  722.0000     -0.0002
  723.0000     -0.0003
  724.0000     -0.0003
  725.0000     -0.0003
  726.0000     -0.0002
  727.0000     -0.0003
  728.0000     -0.0003
  729.0000     -0.0003
  730.0000     -0.0003
  731.0000     -0.0002
  732.0000     -0.0002
  733.0000     -0.0002
  734.0000     -0.0002
  735.0000     -0.0002
  736.0000     -0.0002
  737.0000     -0.0002
  738.0000     -0.0002
  739.0000     -0.0002
  740.0000     -0.0002
  741.0000     -0.0002
  742.0000     -0.0002
  743.0000     -0.0002
  744.0000     -0.0003
  745.0000     -0.0002
  746.0000     -0.0002
  747.0000     -0.0003
  748.0000     -0.0002
  749.0000     -0.0002
  750.0000     -0.0003
  751.0000     -0.0002
  752.0000     -0.0002
  753.0000     -0.0003
  754.0000     -0.0003
  755.0000     -0.0002
  756.0000     -0.0002
  757.0000     -0.0003
  758.0000     -0.0002
  759.0000     -0.0003
  760.0000     -0.0003
  761.0000     -0.0002
  762.0000     -0.0002
  763.0000     -0.0002
  764.0000     -0.0002
  765.0000     -0.0002
  766.0000     -0.0002
  767.0000     -0.0002
  768.0000     -0.0003
  769.0000     -0.0002
  770.0000     -0.0003
  771.0000     -0.0003
  772.0000     -0.0003
  773.0000     -0.0003
  774.0000     -0.0002
  775.0000     -0.0002
  776.0000     -0.0003
  777.0000     -0.0002
  778.0000     -0.0002
  779.0000     -0.0002
  780.0000     -0.0003
  781.0000     -0.0003
  782.0000     -0.0002
  783.0000     -0.0002
  784.0000     -0.0003
  785.0000     -0.0003
  786.0000     -0.0002
  787.0000     -0.0002
  788.0000     -0.0002
  789.0000     -0.0003
  790.0000     -0.0002
  791.0000     -0.0002
  792.0000     -0.0002
  793.0000     -0.0002
  794.0000     -0.0002
  795.0000     -0.0003
  796.0000     -0.0003
  797.0000     -0.0003
  798.0000     -0.0003
  799.0000     -0.0003
  800.0000     -0.0004
