Start Wavelength:    200.0000
End Wavelength:    800.0000
Read Mode:  ABS
Read Average:      0.1000
Nanometer Interval:      1.0000
Time:      0.0000

  200.0000      1.9988
  201.0000      1.9710
  202.0000      1.9245
  203.0000      1.9121
  204.0000      1.8541
  205.0000      1.8155
  206.0000      1.7773
  207.0000      1.7628
  208.0000      1.6778
  209.0000      1.6288
  210.0000      1.5849
  211.0000      1.5189
  212.0000      1.4547
  213.0000      1.3698
  214.0000      1.3035
  215.0000      1.2305
  216.0000      1.1528
  217.0000      1.0777
  218.0000      1.0011
  219.0000      0.9333
  220.0000      0.8671
  221.0000      0.7980
  222.0000      0.7397
  223.0000      0.6847
  224.0000      0.6343
  225.0000      0.5851
  226.0000      0.5436
  227.0000      0.5051
  228.0000      0.4726
  229.0000      0.4406
  230.0000      0.4149
  231.0000      0.3925
  232.0000      0.3722
  233.0000      0.3535
  234.0000      0.3388
  235.0000      0.3260
  236.0000      0.3153
  237.0000      0.3041
  238.0000      0.2958
  239.0000      0.2890
  240.0000      0.2827
  241.0000      0.2766
  242.0000      0.2712
  243.0000      0.2670
  244.0000      0.2634
  245.0000      0.2597
  246.0000      0.2568
  247.0000      0.2538
  248.0000      0.2514
  249.0000      0.2497
  250.0000      0.2473
  251.0000      0.2450
  252.0000      0.2433
  253.0000      0.2413
  254.0000      0.2393
  255.0000      0.2381
  256.0000      0.2363
  257.0000      0.2342
  258.0000      0.2332
  259.0000      0.2318
  260.0000      0.2296
  261.0000      0.2278
  262.0000      0.2265
  263.0000      0.2241
  264.0000      0.2226
  265.0000      0.2213
  266.0000      0.2199
  267.0000      0.2176
  268.0000      0.2156
  269.0000      0.2139
  270.0000      0.2111
  271.0000      0.2099
  272.0000      0.2082
  273.0000      0.2059
  274.0000      0.2035
  275.0000      0.2021
  276.0000      0.2004
  277.0000      0.1979
  278.0000      0.1964
  279.0000      0.1939
  280.0000      0.1915
  281.0000      0.1893
  282.0000      0.1878
  283.0000      0.1854
  284.0000      0.1821
  285.0000      0.1808
  286.0000      0.1783
  287.0000      0.1760
  288.0000      0.1735
  289.0000      0.1712
  290.0000      0.1690
  291.0000      0.1670
  292.0000      0.1657
  293.0000      0.1626
  294.0000      0.1609
  295.0000      0.1591
  296.0000      0.1572
  297.0000      0.1552
  298.0000      0.1528
  299.0000      0.1503
  300.0000      0.1484
  301.0000      0.1467
  302.0000      0.1450
  303.0000      0.1428
  304.0000      0.1404
  305.0000      0.1395
  306.0000      0.1380
  307.0000      0.1366
  308.0000      0.1347
  309.0000      0.1330
  310.0000      0.1316
  311.0000      0.1304
  312.0000      0.1285
  313.0000      0.1268
  314.0000      0.1250
  315.0000      0.1233
  316.0000      0.1223
  317.0000      0.1201
  318.0000      0.1192
  319.0000      0.1179
  320.0000      0.1164
  321.0000      0.1162
  322.0000      0.1146
  323.0000      0.1130
  324.0000      0.1124
  325.0000      0.1109
  326.0000      0.1094
  327.0000      0.1086
  328.0000      0.1070
  329.0000      0.1053
  330.0000      0.1046
  331.0000      0.1030
  332.0000      0.1021
  333.0000      0.1009
  334.0000      0.0999
  335.0000      0.0979
  336.0000      0.0970
  337.0000      0.0969
  338.0000      0.0951
  339.0000      0.0940
  340.0000      0.0929
  341.0000      0.0918
  342.0000      0.0912
  343.0000      0.0902
  344.0000      0.0895
  345.0000      0.0879
  346.0000      0.0870
  347.0000      0.0866
  348.0000      0.0858
  349.0000      0.0846
  350.0000      0.0839
  351.0000      0.0831
  352.0000      0.0830
  353.0000      0.0815
  354.0000      0.0812
  355.0000      0.0803
  356.0000      0.0798
  357.0000      0.0778
  358.0000      0.0792
  359.0000      0.0770
  360.0000      0.0775
  361.0000      0.0748
  362.0000      0.0754
  363.0000      0.0755
  364.0000      0.0751
  365.0000      0.0744
  366.0000      0.0721
  367.0000      0.0711
  368.0000      0.0716
  369.0000      0.0723
  370.0000      0.0718
  371.0000      0.0692
  372.0000      0.0687
  373.0000      0.0699
  374.0000      0.0687
  375.0000      0.0680
  376.0000      0.0667
  377.0000      0.0670
  378.0000      0.0651
  379.0000      0.0653
  380.0000      0.0653
  381.0000      0.0642
  382.0000      0.0644
  383.0000      0.0633
  384.0000      0.0631
  385.0000      0.0614
  386.0000      0.0618
  387.0000      0.0611
  388.0000      0.0605
  389.0000      0.0606
  390.0000      0.0588
  391.0000      0.0592
  392.0000      0.0587
  393.0000      0.0591
  394.0000      0.0577
  395.0000      0.0573
  396.0000      0.0573
  397.0000      0.0568
  398.0000      0.0567
  399.0000      0.0564
  400.0000      0.0560
  401.0000      0.0557
  402.0000      0.0556
  403.0000      0.0548
  404.0000      0.0545
  405.0000      0.0546
  406.0000      0.0542
  407.0000      0.0541
  408.0000      0.0531
  409.0000      0.0531
  410.0000      0.0530
  411.0000      0.0522
  412.0000      0.0528
  413.0000      0.0515
  414.0000      0.0514
  415.0000      0.0514
  416.0000      0.0487
  417.0000      0.0482
  418.0000      0.0480
  419.0000      0.0479
  420.0000      0.0475
  421.0000      0.0474
  422.0000      0.0472
  423.0000      0.0470
  424.0000      0.0469
  425.0000      0.0468
  426.0000      0.0466
  427.0000      0.0463
  428.0000      0.0463
  429.0000      0.0460
  430.0000      0.0459
  431.0000      0.0457
  432.0000      0.0455
  433.0000      0.0452
  434.0000      0.0450
  435.0000      0.0449
  436.0000      0.0445
  437.0000      0.0443
  438.0000      0.0440
  439.0000      0.0438
  440.0000      0.0434
  441.0000      0.0432
  442.0000      0.0430
  443.0000      0.0427
  444.0000      0.0423
  445.0000      0.0422
  446.0000      0.0418
  447.0000      0.0416
  448.0000      0.0414
  449.0000      0.0411
  450.0000      0.0408
  451.0000      0.0407
  452.0000      0.0405
  453.0000      0.0402
  454.0000      0.0399
  455.0000      0.0398
  456.0000      0.0395
  457.0000      0.0392
  458.0000      0.0391
  459.0000      0.0389
  460.0000      0.0388
  461.0000      0.0388
  462.0000      0.0387
  463.0000      0.0387
  464.0000      0.0387
  465.0000      0.0388
  466.0000      0.0388
  467.0000      0.0387
  468.0000      0.0386
  469.0000      0.0385
  470.0000      0.0383
  471.0000      0.0381
  472.0000      0.0379
  473.0000      0.0377
  474.0000      0.0375
  475.0000      0.0372
  476.0000      0.0370
  477.0000      0.0368
  478.0000      0.0366
  479.0000      0.0366
  480.0000      0.0366
  481.0000      0.0366
  482.0000      0.0365
  483.0000      0.0365
  484.0000      0.0364
  485.0000      0.0362
  486.0000      0.0360
  487.0000      0.0360
  488.0000      0.0358
  489.0000      0.0357
  490.0000      0.0354
  491.0000      0.0353
  492.0000      0.0352
  493.0000      0.0350
  494.0000      0.0349
  495.0000      0.0347
  496.0000      0.0345
  497.0000      0.0343
  498.0000      0.0341
  499.0000      0.0339
  500.0000      0.0337
  501.0000      0.0335
  502.0000      0.0334
  503.0000      0.0332
  504.0000      0.0331
  505.0000      0.0329
  506.0000      0.0326
  507.0000      0.0324
  508.0000      0.0321
  509.0000      0.0319
  510.0000      0.0317
  511.0000      0.0315
  512.0000      0.0313
  513.0000      0.0311
  514.0000      0.0310
  515.0000      0.0309
  516.0000      0.0308
  517.0000      0.0307
  518.0000      0.0307
  519.0000      0.0306
  520.0000      0.0305
  521.0000      0.0304
  522.0000      0.0303
  523.0000      0.0303
  524.0000      0.0302
  525.0000      0.0302
  526.0000      0.0301
  527.0000      0.0300
  528.0000      0.0299
  529.0000      0.0299
  530.0000      0.0298
  531.0000      0.0297
  532.0000      0.0296
  533.0000      0.0295
  534.0000      0.0295
  535.0000      0.0294
  536.0000      0.0293
  537.0000      0.0292
  538.0000      0.0291
  539.0000      0.0290
  540.0000      0.0289
  541.0000      0.0288
  542.0000      0.0288
  543.0000      0.0287
  544.0000      0.0284
  545.0000      0.0282
  546.0000      0.0282
  547.0000      0.0281
  548.0000      0.0280
  549.0000      0.0279
  550.0000      0.0278
  551.0000      0.0277
  552.0000      0.0276
  553.0000      0.0275
  554.0000      0.0274
  555.0000      0.0274
  556.0000      0.0274
  557.0000      0.0288
  558.0000      0.0289
  559.0000      0.0289
  560.0000      0.0289
  561.0000      0.0289
  562.0000      0.0289
  563.0000      0.0289
  564.0000      0.0290
  565.0000      0.0290
  566.0000      0.0289
  567.0000      0.0289
  568.0000      0.0289
  569.0000      0.0287
  570.0000      0.0286
  571.0000      0.0284
  572.0000      0.0282
  573.0000      0.0280
  574.0000      0.0278
  575.0000      0.0277
  576.0000      0.0276
  577.0000      0.0274
  578.0000      0.0272
  579.0000      0.0270
  580.0000      0.0268
  581.0000      0.0266
  582.0000      0.0265
  583.0000      0.0263
  584.0000      0.0262
  585.0000      0.0260
  586.0000      0.0259
  587.0000      0.0258
  588.0000      0.0257
  589.0000      0.0256
  590.0000      0.0255
  591.0000      0.0255
  592.0000      0.0254
  593.0000      0.0255
  594.0000      0.0254
  595.0000      0.0253
  596.0000      0.0251
  597.0000      0.0250
  598.0000      0.0249
  599.0000      0.0248
  600.0000      0.0247
  601.0000      0.0246
  602.0000      0.0246
  603.0000      0.0246
  604.0000      0.0246
  605.0000      0.0247
  606.0000      0.0248
  607.0000      0.0248
  608.0000      0.0249
  609.0000      0.0249
  610.0000      0.0249
  611.0000      0.0248
  612.0000      0.0247
  613.0000      0.0246
  614.0000      0.0243
  615.0000      0.0242
  616.0000      0.0241
  617.0000      0.0239
  618.0000      0.0238
  619.0000      0.0237
  620.0000      0.0236
  621.0000      0.0235
  622.0000      0.0234
  623.0000      0.0234
  624.0000      0.0233
  625.0000      0.0232
  626.0000      0.0230
  627.0000      0.0229
  628.0000      0.0228
  629.0000      0.0226
  630.0000      0.0225
  631.0000      0.0224
  632.0000      0.0224
  633.0000      0.0224
  634.0000      0.0225
  635.0000      0.0225
  636.0000      0.0226
  637.0000      0.0226
  638.0000      0.0226
  639.0000      0.0226
  640.0000      0.0227
  641.0000      0.0228
  642.0000      0.0228
  643.0000      0.0229
  644.0000      0.0229
  645.0000      0.0228
  646.0000      0.0229
  647.0000      0.0229
  648.0000      0.0229
  649.0000      0.0230
  650.0000      0.0230
  651.0000      0.0231
  652.0000      0.0231
  653.0000      0.0231
  654.0000      0.0231
  655.0000      0.0231
  656.0000      0.0231
  657.0000      0.0230
  658.0000      0.0230
  659.0000      0.0229
  660.0000      0.0229
  661.0000      0.0229
  662.0000      0.0229
  663.0000      0.0230
  664.0000      0.0229
  665.0000      0.0229
  666.0000      0.0229
  667.0000      0.0229
  668.0000      0.0229
  669.0000      0.0229
  670.0000      0.0227
  671.0000      0.0226
  672.0000      0.0224
  673.0000      0.0223
  674.0000      0.0222
  675.0000      0.0221
  676.0000      0.0221
  677.0000      0.0221
  678.0000      0.0221
  679.0000      0.0220
  680.0000      0.0221
  681.0000      0.0219
  682.0000      0.0219
  683.0000      0.0218
  684.0000      0.0217
  685.0000      0.0215
  686.0000      0.0213
  687.0000      0.0211
  688.0000      0.0210
  689.0000      0.0208
  690.0000      0.0208
  691.0000      0.0207
  692.0000      0.0205
  693.0000      0.0205
  694.0000      0.0204
  695.0000      0.0204
  696.0000      0.0204
  697.0000      0.0204
  698.0000      0.0203
  699.0000      0.0203
  700.0000      0.0203
  701.0000      0.0204
  702.0000      0.0203
  703.0000      0.0203
  704.0000      0.0203
  705.0000      0.0203
  706.0000      0.0204
  707.0000      0.0203
  708.0000      0.0203
  709.0000      0.0203
  710.0000      0.0203
  711.0000      0.0203
  712.0000      0.0203
  713.0000      0.0204
  714.0000      0.0204
  715.0000      0.0204
  716.0000      0.0205
  717.0000      0.0205
  718.0000      0.0206
  719.0000      0.0207
  720.0000      0.0208
  721.0000      0.0210
  722.0000      0.0211
  723.0000      0.0211
  724.0000      0.0212
  725.0000      0.0213
  726.0000      0.0213
  727.0000      0.0213
  728.0000      0.0213
  729.0000      0.0213
  730.0000      0.0213
  731.0000      0.0211
  732.0000      0.0210
  733.0000      0.0209
  734.0000      0.0208
  735.0000      0.0206
  736.0000      0.0193
  737.0000      0.0192
  738.0000      0.0192
  739.0000      0.0192
  740.0000      0.0191
  741.0000      0.0191
  742.0000      0.0191
  743.0000      0.0191
  744.0000      0.0190
  745.0000      0.0191
  746.0000      0.0191
  747.0000      0.0192
  748.0000      0.0192
  749.0000      0.0193
  750.0000      0.0194
  751.0000      0.0195
  752.0000      0.0195
  753.0000      0.0194
  754.0000      0.0195
  755.0000      0.0194
  756.0000      0.0194
  757.0000      0.0195
  758.0000      0.0195
  759.0000      0.0196
  760.0000      0.0198
  761.0000      0.0198
  762.0000      0.0198
  763.0000      0.0199
  764.0000      0.0199
  765.0000      0.0199
  766.0000      0.0200
  767.0000      0.0199
  768.0000      0.0198
  769.0000      0.0198
  770.0000      0.0197
  771.0000      0.0195
  772.0000      0.0194
  773.0000      0.0193
  774.0000      0.0192
  775.0000      0.0191
  776.0000      0.0190
  777.0000      0.0188
  778.0000      0.0186
  779.0000      0.0184
  780.0000      0.0182
  781.0000      0.0180
  782.0000      0.0179
  783.0000      0.0177
  784.0000      0.0175
  785.0000      0.0174
  786.0000      0.0173
  787.0000      0.0172
  788.0000      0.0172
  789.0000      0.0172
  790.0000      0.0172
  791.0000      0.0172
  792.0000      0.0171
  793.0000      0.0172
  794.0000      0.0171
  795.0000      0.0171
  796.0000      0.0171
  797.0000      0.0172
  798.0000      0.0173
  799.0000      0.0174
  800.0000      0.0173
