Start Wavelength:    200.0000
End Wavelength:    800.0000
Read Mode:  ABS
Read Average:      0.1000
Nanometer Interval:      1.0000
Time:      0.0000

  200.0000      1.9263
  201.0000      1.8203
  202.0000      1.8453
  203.0000      1.8214
  204.0000      1.7547
  205.0000      1.7175
  206.0000      1.7033
  207.0000      1.6816
  208.0000      1.6329
  209.0000      1.5581
  210.0000      1.4949
  211.0000      1.4438
  212.0000      1.3838
  213.0000      1.3141
  214.0000      1.2331
  215.0000      1.1701
  216.0000      1.1002
  217.0000      1.0209
  218.0000      0.9525
  219.0000      0.8867
  220.0000      0.8240
  221.0000      0.7587
  222.0000      0.7040
  223.0000      0.6500
  224.0000      0.6027
  225.0000      0.5560
  226.0000      0.5168
  227.0000      0.4808
  228.0000      0.4497
  229.0000      0.4187
  230.0000      0.3938
  231.0000      0.3731
  232.0000      0.3535
  233.0000      0.3352
  234.0000      0.3212
  235.0000      0.3093
  236.0000      0.2988
  237.0000      0.2884
  238.0000      0.2807
  239.0000      0.2739
  240.0000      0.2680
  241.0000      0.2619
  242.0000      0.2570
  243.0000      0.2526
  244.0000      0.2490
  245.0000      0.2451
  246.0000      0.2426
  247.0000      0.2398
  248.0000      0.2373
  249.0000      0.2353
  250.0000      0.2331
  251.0000      0.2310
  252.0000      0.2295
  253.0000      0.2273
  254.0000      0.2259
  255.0000      0.2242
  256.0000      0.2225
  257.0000      0.2206
  258.0000      0.2191
  259.0000      0.2174
  260.0000      0.2154
  261.0000      0.2140
  262.0000      0.2127
  263.0000      0.2106
  264.0000      0.2089
  265.0000      0.2075
  266.0000      0.2063
  267.0000      0.2045
  268.0000      0.2024
  269.0000      0.1995
  270.0000      0.1975
  271.0000      0.1964
  272.0000      0.1943
  273.0000      0.1917
  274.0000      0.1897
  275.0000      0.1886
  276.0000      0.1873
  277.0000      0.1856
  278.0000      0.1831
  279.0000      0.1813
  280.0000      0.1798
  281.0000      0.1779
  282.0000      0.1753
  283.0000      0.1727
  284.0000      0.1703
  285.0000      0.1684
  286.0000      0.1662
  287.0000      0.1639
  288.0000      0.1608
  289.0000      0.1592
  290.0000      0.1569
  291.0000      0.1542
  292.0000      0.1523
  293.0000      0.1495
  294.0000      0.1482
  295.0000      0.1459
  296.0000      0.1434
  297.0000      0.1417
  298.0000      0.1398
  299.0000      0.1373
  300.0000      0.1358
  301.0000      0.1340
  302.0000      0.1322
  303.0000      0.1304
  304.0000      0.1289
  305.0000      0.1272
  306.0000      0.1245
  307.0000      0.1234
  308.0000      0.1216
  309.0000      0.1196
  310.0000      0.1178
  311.0000      0.1163
  312.0000      0.1152
  313.0000      0.1139
  314.0000      0.1118
  315.0000      0.1098
  316.0000      0.1092
  317.0000      0.1079
  318.0000      0.1072
  319.0000      0.1051
  320.0000      0.1031
  321.0000      0.1035
  322.0000      0.1027
  323.0000      0.1009
  324.0000      0.1003
  325.0000      0.0990
  326.0000      0.0981
  327.0000      0.0970
  328.0000      0.0952
  329.0000      0.0938
  330.0000      0.0930
  331.0000      0.0928
  332.0000      0.0915
  333.0000      0.0898
  334.0000      0.0893
  335.0000      0.0879
  336.0000      0.0873
  337.0000      0.0861
  338.0000      0.0850
  339.0000      0.0836
  340.0000      0.0826
  341.0000      0.0816
  342.0000      0.0809
  343.0000      0.0799
  344.0000      0.0793
  345.0000      0.0782
  346.0000      0.0770
  347.0000      0.0760
  348.0000      0.0758
  349.0000      0.0749
  350.0000      0.0741
  351.0000      0.0736
  352.0000      0.0728
  353.0000      0.0718
  354.0000      0.0713
  355.0000      0.0706
  356.0000      0.0697
  357.0000      0.0696
  358.0000      0.0699
  359.0000      0.0661
  360.0000      0.0666
  361.0000      0.0656
  362.0000      0.0661
  363.0000      0.0658
  364.0000      0.0641
  365.0000      0.0622
  366.0000      0.0636
  367.0000      0.0628
  368.0000      0.0617
  369.0000      0.0598
  370.0000      0.0621
  371.0000      0.0600
  372.0000      0.0596
  373.0000      0.0594
  374.0000      0.0580
  375.0000      0.0587
  376.0000      0.0583
  377.0000      0.0572
  378.0000      0.0559
  379.0000      0.0556
  380.0000      0.0564
  381.0000      0.0554
  382.0000      0.0544
  383.0000      0.0540
  384.0000      0.0539
  385.0000      0.0527
  386.0000      0.0520
  387.0000      0.0514
  388.0000      0.0513
  389.0000      0.0522
  390.0000      0.0504
  391.0000      0.0503
  392.0000      0.0495
  393.0000      0.0501
  394.0000      0.0500
  395.0000      0.0487
  396.0000      0.0484
  397.0000      0.0481
  398.0000      0.0483
  399.0000      0.0478
  400.0000      0.0472
  401.0000      0.0475
  402.0000      0.0474
  403.0000      0.0466
  404.0000      0.0462
  405.0000      0.0464
  406.0000      0.0463
  407.0000      0.0457
  408.0000      0.0451
  409.0000      0.0453
  410.0000      0.0453
  411.0000      0.0450
  412.0000      0.0455
  413.0000      0.0442
  414.0000      0.0441
  415.0000      0.0440
  416.0000      0.0428
  417.0000      0.0425
  418.0000      0.0423
  419.0000      0.0420
  420.0000      0.0413
  421.0000      0.0410
  422.0000      0.0407
  423.0000      0.0402
  424.0000      0.0399
  425.0000      0.0395
  426.0000      0.0392
  427.0000      0.0388
  428.0000      0.0384
  429.0000      0.0380
  430.0000      0.0376
  431.0000      0.0374
  432.0000      0.0371
  433.0000      0.0367
  434.0000      0.0364
  435.0000      0.0362
  436.0000      0.0359
  437.0000      0.0356
  438.0000      0.0353
  439.0000      0.0350
  440.0000      0.0346
  441.0000      0.0342
  442.0000      0.0339
  443.0000      0.0335
  444.0000      0.0331
  445.0000      0.0329
  446.0000      0.0326
  447.0000      0.0322
  448.0000      0.0321
  449.0000      0.0319
  450.0000      0.0316
  451.0000      0.0315
  452.0000      0.0312
  453.0000      0.0312
  454.0000      0.0309
  455.0000      0.0307
  456.0000      0.0305
  457.0000      0.0304
  458.0000      0.0303
  459.0000      0.0301
  460.0000      0.0299
  461.0000      0.0299
  462.0000      0.0298
  463.0000      0.0298
  464.0000      0.0297
  465.0000      0.0298
  466.0000      0.0297
  467.0000      0.0296
  468.0000      0.0296
  469.0000      0.0294
  470.0000      0.0293
  471.0000      0.0293
  472.0000      0.0292
  473.0000      0.0291
  474.0000      0.0290
  475.0000      0.0289
  476.0000      0.0288
  477.0000      0.0286
  478.0000      0.0285
  479.0000      0.0284
  480.0000      0.0282
  481.0000      0.0281
  482.0000      0.0279
  483.0000      0.0278
  484.0000      0.0277
  485.0000      0.0276
  486.0000      0.0274
  487.0000      0.0273
  488.0000      0.0272
  489.0000      0.0271
  490.0000      0.0270
  491.0000      0.0269
  492.0000      0.0269
  493.0000      0.0269
  494.0000      0.0268
  495.0000      0.0267
  496.0000      0.0267
  497.0000      0.0266
  498.0000      0.0265
  499.0000      0.0265
  500.0000      0.0265
  501.0000      0.0267
  502.0000      0.0267
  503.0000      0.0266
  504.0000      0.0265
  505.0000      0.0263
  506.0000      0.0260
  507.0000      0.0258
  508.0000      0.0256
  509.0000      0.0254
  510.0000      0.0252
  511.0000      0.0251
  512.0000      0.0249
  513.0000      0.0246
  514.0000      0.0245
  515.0000      0.0242
  516.0000      0.0241
  517.0000      0.0239
  518.0000      0.0238
  519.0000      0.0237
  520.0000      0.0236
  521.0000      0.0235
  522.0000      0.0233
  523.0000      0.0232
  524.0000      0.0231
  525.0000      0.0230
  526.0000      0.0230
  527.0000      0.0229
  528.0000      0.0229
  529.0000      0.0228
  530.0000      0.0228
  531.0000      0.0227
  532.0000      0.0226
  533.0000      0.0226
  534.0000      0.0226
  535.0000      0.0226
  536.0000      0.0225
  537.0000      0.0225
  538.0000      0.0225
  539.0000      0.0225
  540.0000      0.0225
  541.0000      0.0225
  542.0000      0.0224
  543.0000      0.0224
  544.0000      0.0222
  545.0000      0.0221
  546.0000      0.0221
  547.0000      0.0221
  548.0000      0.0222
  549.0000      0.0223
  550.0000      0.0222
  551.0000      0.0221
  552.0000      0.0221
  553.0000      0.0221
  554.0000      0.0220
  555.0000      0.0218
  556.0000      0.0218
  557.0000      0.0214
  558.0000      0.0213
  559.0000      0.0212
  560.0000      0.0212
  561.0000      0.0212
  562.0000      0.0212
  563.0000      0.0212
  564.0000      0.0212
  565.0000      0.0212
  566.0000      0.0213
  567.0000      0.0212
  568.0000      0.0212
  569.0000      0.0211
  570.0000      0.0211
  571.0000      0.0211
  572.0000      0.0211
  573.0000      0.0210
  574.0000      0.0209
  575.0000      0.0209
  576.0000      0.0209
  577.0000      0.0209
  578.0000      0.0210
  579.0000      0.0210
  580.0000      0.0210
  581.0000      0.0210
  582.0000      0.0211
  583.0000      0.0211
  584.0000      0.0212
  585.0000      0.0212
  586.0000      0.0214
  587.0000      0.0214
  588.0000      0.0214
  589.0000      0.0213
  590.0000      0.0213
  591.0000      0.0212
  592.0000      0.0211
  593.0000      0.0211
  594.0000      0.0210
  595.0000      0.0209
  596.0000      0.0208
  597.0000      0.0208
  598.0000      0.0209
  599.0000      0.0209
  600.0000      0.0209
  601.0000      0.0208
  602.0000      0.0207
  603.0000      0.0205
  604.0000      0.0203
  605.0000      0.0202
  606.0000      0.0202
  607.0000      0.0202
  608.0000      0.0201
  609.0000      0.0201
  610.0000      0.0199
  611.0000      0.0197
  612.0000      0.0196
  613.0000      0.0195
  614.0000      0.0195
  615.0000      0.0194
  616.0000      0.0193
  617.0000      0.0192
  618.0000      0.0192
  619.0000      0.0191
  620.0000      0.0190
  621.0000      0.0189
  622.0000      0.0188
  623.0000      0.0187
  624.0000      0.0186
  625.0000      0.0184
  626.0000      0.0183
  627.0000      0.0182
  628.0000      0.0180
  629.0000      0.0179
  630.0000      0.0178
  631.0000      0.0177
  632.0000      0.0177
  633.0000      0.0176
  634.0000      0.0176
  635.0000      0.0176
  636.0000      0.0176
  637.0000      0.0175
  638.0000      0.0175
  639.0000      0.0174
  640.0000      0.0174
  641.0000      0.0174
  642.0000      0.0174
  643.0000      0.0175
  644.0000      0.0175
  645.0000      0.0176
  646.0000      0.0177
  647.0000      0.0178
  648.0000      0.0178
  649.0000      0.0179
  650.0000      0.0180
  651.0000      0.0181
  652.0000      0.0182
  653.0000      0.0183
  654.0000      0.0183
  655.0000      0.0184
  656.0000      0.0184
  657.0000      0.0184
  658.0000      0.0184
  659.0000      0.0184
  660.0000      0.0183
  661.0000      0.0183
  662.0000      0.0182
  663.0000      0.0181
  664.0000      0.0181
  665.0000      0.0180
  666.0000      0.0180
  667.0000      0.0181
  668.0000      0.0182
  669.0000      0.0183
  670.0000      0.0184
  671.0000      0.0184
  672.0000      0.0184
  673.0000      0.0185
  674.0000      0.0185
  675.0000      0.0186
  676.0000      0.0186
  677.0000      0.0186
  678.0000      0.0185
  679.0000      0.0185
  680.0000      0.0185
  681.0000      0.0184
  682.0000      0.0184
  683.0000      0.0184
  684.0000      0.0184
  685.0000      0.0184
  686.0000      0.0184
  687.0000      0.0184
  688.0000      0.0184
  689.0000      0.0183
  690.0000      0.0183
  691.0000      0.0182
  692.0000      0.0182
  693.0000      0.0181
  694.0000      0.0181
  695.0000      0.0180
  696.0000      0.0180
  697.0000      0.0179
  698.0000      0.0178
  699.0000      0.0177
  700.0000      0.0177
  701.0000      0.0176
  702.0000      0.0175
  703.0000      0.0175
  704.0000      0.0176
  705.0000      0.0177
  706.0000      0.0177
  707.0000      0.0178
  708.0000      0.0178
  709.0000      0.0179
  710.0000      0.0179
  711.0000      0.0180
  712.0000      0.0179
  713.0000      0.0179
  714.0000      0.0180
  715.0000      0.0180
  716.0000      0.0180
  717.0000      0.0180
  718.0000      0.0179
  719.0000      0.0178
  720.0000      0.0177
  721.0000      0.0176
  722.0000      0.0174
  723.0000      0.0172
  724.0000      0.0171
  725.0000      0.0169
  726.0000      0.0169
  727.0000      0.0168
  728.0000      0.0167
  729.0000      0.0166
  730.0000      0.0164
  731.0000      0.0164
  732.0000      0.0164
  733.0000      0.0163
  734.0000      0.0161
  735.0000      0.0162
  736.0000      0.0154
  737.0000      0.0154
  738.0000      0.0154
  739.0000      0.0155
  740.0000      0.0155
  741.0000      0.0155
  742.0000      0.0156
  743.0000      0.0156
  744.0000      0.0156
  745.0000      0.0157
  746.0000      0.0157
  747.0000      0.0157
  748.0000      0.0157
  749.0000      0.0157
  750.0000      0.0157
  751.0000      0.0156
  752.0000      0.0155
  753.0000      0.0154
  754.0000      0.0153
  755.0000      0.0153
  756.0000      0.0153
  757.0000      0.0153
  758.0000      0.0153
  759.0000      0.0153
  760.0000      0.0155
  761.0000      0.0155
  762.0000      0.0157
  763.0000      0.0157
  764.0000      0.0157
  765.0000      0.0157
  766.0000      0.0157
  767.0000      0.0157
  768.0000      0.0156
  769.0000      0.0157
  770.0000      0.0156
  771.0000      0.0156
  772.0000      0.0156
  773.0000      0.0155
  774.0000      0.0155
  775.0000      0.0155
  776.0000      0.0154
  777.0000      0.0153
  778.0000      0.0153
  779.0000      0.0152
  780.0000      0.0152
  781.0000      0.0151
  782.0000      0.0151
  783.0000      0.0150
  784.0000      0.0151
  785.0000      0.0150
  786.0000      0.0150
  787.0000      0.0149
  788.0000      0.0150
  789.0000      0.0150
  790.0000      0.0150
  791.0000      0.0149
  792.0000      0.0149
  793.0000      0.0149
  794.0000      0.0148
  795.0000      0.0147
  796.0000      0.0147
  797.0000      0.0147
  798.0000      0.0146
  799.0000      0.0147
  800.0000      0.0146
