Start Wavelength:    200.0000
End Wavelength:    800.0000
Read Mode:  ABS
Read Average:      0.1000
Nanometer Interval:      1.0000
Time:      0.0000

  200.0000      1.3424
  201.0000      1.2520
  202.0000      1.1934
  203.0000      1.1520
  204.0000      1.0953
  205.0000      1.0545
  206.0000      1.0238
  207.0000      0.9892
  208.0000      0.9579
  209.0000      0.9274
  210.0000      0.9023
  211.0000      0.8779
  212.0000      0.8528
  213.0000      0.8278
  214.0000      0.8068
  215.0000      0.7865
  216.0000      0.7693
  217.0000      0.7484
  218.0000      0.7304
  219.0000      0.7152
  220.0000      0.6987
  221.0000      0.6834
  222.0000      0.6692
  223.0000      0.6549
  224.0000      0.6422
  225.0000      0.6278
  226.0000      0.6162
  227.0000      0.6054
  228.0000      0.5914
  229.0000      0.5800
  230.0000      0.5688
  231.0000      0.5578
  232.0000      0.5470
  233.0000      0.5345
  234.0000      0.5243
  235.0000      0.5158
  236.0000      0.5059
  237.0000      0.4965
  238.0000      0.4878
  239.0000      0.4802
  240.0000      0.4741
  241.0000      0.4666
  242.0000      0.4609
  243.0000      0.4548
  244.0000      0.4500
  245.0000      0.4447
  246.0000      0.4406
  247.0000      0.4360
  248.0000      0.4320
  249.0000      0.4280
  250.0000      0.4246
  251.0000      0.4211
  252.0000      0.4179
  253.0000      0.4142
  254.0000      0.4107
  255.0000      0.4083
  256.0000      0.4048
  257.0000      0.4014
  258.0000      0.3982
  259.0000      0.3954
  260.0000      0.3917
  261.0000      0.3891
  262.0000      0.3854
  263.0000      0.3819
  264.0000      0.3778
  265.0000      0.3743
  266.0000      0.3706
  267.0000      0.3670
  268.0000      0.3614
  269.0000      0.3577
  270.0000      0.3526
  271.0000      0.3486
  272.0000      0.3445
  273.0000      0.3387
  274.0000      0.3336
  275.0000      0.3288
  276.0000      0.3240
  277.0000      0.3193
  278.0000      0.3138
  279.0000      0.3086
  280.0000      0.3049
  281.0000      0.2981
  282.0000      0.2940
  283.0000      0.2880
  284.0000      0.2825
  285.0000      0.2772
  286.0000      0.2724
  287.0000      0.2669
  288.0000      0.2621
  289.0000      0.2558
  290.0000      0.2514
  291.0000      0.2459
  292.0000      0.2416
  293.0000      0.2369
  294.0000      0.2315
  295.0000      0.2265
  296.0000      0.2225
  297.0000      0.2181
  298.0000      0.2136
  299.0000      0.2094
  300.0000      0.2053
  301.0000      0.2015
  302.0000      0.1974
  303.0000      0.1945
  304.0000      0.1907
  305.0000      0.1869
  306.0000      0.1840
  307.0000      0.1813
  308.0000      0.1781
  309.0000      0.1761
  310.0000      0.1719
  311.0000      0.1698
  312.0000      0.1670
  313.0000      0.1651
  314.0000      0.1625
  315.0000      0.1588
  316.0000      0.1570
  317.0000      0.1552
  318.0000      0.1529
  319.0000      0.1508
  320.0000      0.1486
  321.0000      0.1470
  322.0000      0.1431
  323.0000      0.1413
  324.0000      0.1387
  325.0000      0.1377
  326.0000      0.1350
  327.0000      0.1332
  328.0000      0.1314
  329.0000      0.1289
  330.0000      0.1273
  331.0000      0.1259
  332.0000      0.1234
  333.0000      0.1217
  334.0000      0.1196
  335.0000      0.1185
  336.0000      0.1170
  337.0000      0.1148
  338.0000      0.1132
  339.0000      0.1117
  340.0000      0.1102
  341.0000      0.1085
  342.0000      0.1071
  343.0000      0.1057
  344.0000      0.1047
  345.0000      0.1026
  346.0000      0.1019
  347.0000      0.1001
  348.0000      0.0993
  349.0000      0.0977
  350.0000      0.0963
  351.0000      0.0948
  352.0000      0.0947
  353.0000      0.0925
  354.0000      0.0918
  355.0000      0.0902
  356.0000      0.0900
  357.0000      0.0911
  358.0000      0.0876
  359.0000      0.0878
  360.0000      0.0840
  361.0000      0.0847
  362.0000      0.0845
  363.0000      0.0814
  364.0000      0.0814
  365.0000      0.0801
  366.0000      0.0784
  367.0000      0.0777
  368.0000      0.0780
  369.0000      0.0762
  370.0000      0.0762
  371.0000      0.0738
  372.0000      0.0739
  373.0000      0.0734
  374.0000      0.0720
  375.0000      0.0718
  376.0000      0.0699
  377.0000      0.0698
  378.0000      0.0687
  379.0000      0.0677
  380.0000      0.0680
  381.0000      0.0660
  382.0000      0.0665
  383.0000      0.0646
  384.0000      0.0644
  385.0000      0.0635
  386.0000      0.0638
  387.0000      0.0623
  388.0000      0.0620
  389.0000      0.0607
  390.0000      0.0608
  391.0000      0.0601
  392.0000      0.0589
  393.0000      0.0594
  394.0000      0.0577
  395.0000      0.0575
  396.0000      0.0572
  397.0000      0.0561
  398.0000      0.0566
  399.0000      0.0553
  400.0000      0.0548
  401.0000      0.0545
  402.0000      0.0534
  403.0000      0.0534
  404.0000      0.0531
  405.0000      0.0528
  406.0000      0.0522
  407.0000      0.0517
  408.0000      0.0515
  409.0000      0.0508
  410.0000      0.0504
  411.0000      0.0512
  412.0000      0.0499
  413.0000      0.0496
  414.0000      0.0492
  415.0000      0.0488
  416.0000      0.0485
  417.0000      0.0482
  418.0000      0.0480
  419.0000      0.0474
  420.0000      0.0473
  421.0000      0.0469
  422.0000      0.0466
  423.0000      0.0461
  424.0000      0.0458
  425.0000      0.0456
  426.0000      0.0452
  427.0000      0.0449
  428.0000      0.0447
  429.0000      0.0444
  430.0000      0.0441
  431.0000      0.0437
  432.0000      0.0433
  433.0000      0.0431
  434.0000      0.0426
  435.0000      0.0424
  436.0000      0.0420
  437.0000      0.0416
  438.0000      0.0413
  439.0000      0.0409
  440.0000      0.0405
  441.0000      0.0400
  442.0000      0.0395
  443.0000      0.0391
  444.0000      0.0387
  445.0000      0.0382
  446.0000      0.0378
  447.0000      0.0374
  448.0000      0.0370
  449.0000      0.0367
  450.0000      0.0363
  451.0000      0.0360
  452.0000      0.0355
  453.0000      0.0353
  454.0000      0.0349
  455.0000      0.0347
  456.0000      0.0343
  457.0000      0.0341
  458.0000      0.0337
  459.0000      0.0336
  460.0000      0.0333
  461.0000      0.0331
  462.0000      0.0330
  463.0000      0.0328
  464.0000      0.0325
  465.0000      0.0323
  466.0000      0.0321
  467.0000      0.0319
  468.0000      0.0316
  469.0000      0.0314
  470.0000      0.0311
  471.0000      0.0308
  472.0000      0.0305
  473.0000      0.0302
  474.0000      0.0298
  475.0000      0.0296
  476.0000      0.0293
  477.0000      0.0290
  478.0000      0.0287
  479.0000      0.0286
  480.0000      0.0283
  481.0000      0.0280
  482.0000      0.0277
  483.0000      0.0274
  484.0000      0.0271
  485.0000      0.0269
  486.0000      0.0266
  487.0000      0.0265
  488.0000      0.0263
  489.0000      0.0261
  490.0000      0.0260
  491.0000      0.0259
  492.0000      0.0258
  493.0000      0.0256
  494.0000      0.0255
  495.0000      0.0253
  496.0000      0.0252
  497.0000      0.0251
  498.0000      0.0249
  499.0000      0.0248
  500.0000      0.0247
  501.0000      0.0244
  502.0000      0.0242
  503.0000      0.0240
  504.0000      0.0238
  505.0000      0.0236
  506.0000      0.0233
  507.0000      0.0232
  508.0000      0.0230
  509.0000      0.0228
  510.0000      0.0226
  511.0000      0.0224
  512.0000      0.0222
  513.0000      0.0221
  514.0000      0.0219
  515.0000      0.0218
  516.0000      0.0216
  517.0000      0.0215
  518.0000      0.0212
  519.0000      0.0210
  520.0000      0.0208
  521.0000      0.0207
  522.0000      0.0205
  523.0000      0.0205
  524.0000      0.0203
  525.0000      0.0201
  526.0000      0.0200
  527.0000      0.0199
  528.0000      0.0198
  529.0000      0.0197
  530.0000      0.0196
  531.0000      0.0195
  532.0000      0.0194
  533.0000      0.0193
  534.0000      0.0192
  535.0000      0.0191
  536.0000      0.0190
  537.0000      0.0190
  538.0000      0.0190
  539.0000      0.0190
  540.0000      0.0190
  541.0000      0.0189
  542.0000      0.0189
  543.0000      0.0187
  544.0000      0.0186
  545.0000      0.0185
  546.0000      0.0183
  547.0000      0.0182
  548.0000      0.0182
  549.0000      0.0181
  550.0000      0.0182
  551.0000      0.0184
  552.0000      0.0185
  553.0000      0.0186
  554.0000      0.0187
  555.0000      0.0188
  556.0000      0.0188
  557.0000      0.0191
  558.0000      0.0190
  559.0000      0.0188
  560.0000      0.0187
  561.0000      0.0185
  562.0000      0.0184
  563.0000      0.0183
  564.0000      0.0182
  565.0000      0.0181
  566.0000      0.0180
  567.0000      0.0179
  568.0000      0.0178
  569.0000      0.0177
  570.0000      0.0175
  571.0000      0.0173
  572.0000      0.0172
  573.0000      0.0170
  574.0000      0.0169
  575.0000      0.0168
  576.0000      0.0168
  577.0000      0.0168
  578.0000      0.0167
  579.0000      0.0165
  580.0000      0.0164
  581.0000      0.0163
  582.0000      0.0162
  583.0000      0.0162
  584.0000      0.0161
  585.0000      0.0160
  586.0000      0.0158
  587.0000      0.0157
  588.0000      0.0156
  589.0000      0.0155
  590.0000      0.0154
  591.0000      0.0154
  592.0000      0.0153
  593.0000      0.0152
  594.0000      0.0152
  595.0000      0.0151
  596.0000      0.0150
  597.0000      0.0150
  598.0000      0.0150
  599.0000      0.0149
  600.0000      0.0148
  601.0000      0.0147
  602.0000      0.0146
  603.0000      0.0146
  604.0000      0.0145
  605.0000      0.0145
  606.0000      0.0145
  607.0000      0.0144
  608.0000      0.0144
  609.0000      0.0144
  610.0000      0.0144
  611.0000      0.0144
  612.0000      0.0143
  613.0000      0.0142
  614.0000      0.0141
  615.0000      0.0140
  616.0000      0.0140
  617.0000      0.0140
  618.0000      0.0139
  619.0000      0.0139
  620.0000      0.0138
  621.0000      0.0137
  622.0000      0.0136
  623.0000      0.0136
  624.0000      0.0135
  625.0000      0.0135
  626.0000      0.0134
  627.0000      0.0133
  628.0000      0.0133
  629.0000      0.0132
  630.0000      0.0131
  631.0000      0.0130
  632.0000      0.0129
  633.0000      0.0129
  634.0000      0.0128
  635.0000      0.0128
  636.0000      0.0127
  637.0000      0.0127
  638.0000      0.0126
  639.0000      0.0125
  640.0000      0.0125
  641.0000      0.0125
  642.0000      0.0124
  643.0000      0.0124
  644.0000      0.0123
  645.0000      0.0123
  646.0000      0.0123
  647.0000      0.0123
  648.0000      0.0123
  649.0000      0.0124
  650.0000      0.0124
  651.0000      0.0124
  652.0000      0.0124
  653.0000      0.0125
  654.0000      0.0125
  655.0000      0.0126
  656.0000      0.0127
  657.0000      0.0128
  658.0000      0.0129
  659.0000      0.0131
  660.0000      0.0134
  661.0000      0.0137
  662.0000      0.0139
  663.0000      0.0141
  664.0000      0.0144
  665.0000      0.0147
  666.0000      0.0149
  667.0000      0.0152
  668.0000      0.0153
  669.0000      0.0155
  670.0000      0.0157
  671.0000      0.0158
  672.0000      0.0160
  673.0000      0.0160
  674.0000      0.0161
  675.0000      0.0162
  676.0000      0.0162
  677.0000      0.0162
  678.0000      0.0162
  679.0000      0.0162
  680.0000      0.0161
  681.0000      0.0160
  682.0000      0.0159
  683.0000      0.0157
  684.0000      0.0155
  685.0000      0.0153
  686.0000      0.0150
  687.0000      0.0147
  688.0000      0.0144
  689.0000      0.0142
  690.0000      0.0140
  691.0000      0.0137
  692.0000      0.0136
  693.0000      0.0135
  694.0000      0.0133
  695.0000      0.0131
  696.0000      0.0129
  697.0000      0.0128
  698.0000      0.0126
  699.0000      0.0124
  700.0000      0.0122
  701.0000      0.0122
  702.0000      0.0120
  703.0000      0.0120
  704.0000      0.0119
  705.0000      0.0117
  706.0000      0.0117
  707.0000      0.0116
  708.0000      0.0116
  709.0000      0.0115
  710.0000      0.0115
  711.0000      0.0115
  712.0000      0.0114
  713.0000      0.0115
  714.0000      0.0114
  715.0000      0.0113
  716.0000      0.0112
  717.0000      0.0112
  718.0000      0.0111
  719.0000      0.0111
  720.0000      0.0110
  721.0000      0.0108
  722.0000      0.0107
  723.0000      0.0107
  724.0000      0.0106
  725.0000      0.0105
  726.0000      0.0105
  727.0000      0.0105
  728.0000      0.0104
  729.0000      0.0104
  730.0000      0.0103
  731.0000      0.0102
  732.0000      0.0102
  733.0000      0.0101
  734.0000      0.0101
  735.0000      0.0100
  736.0000      0.0101
  737.0000      0.0102
  738.0000      0.0101
  739.0000      0.0101
  740.0000      0.0100
  741.0000      0.0099
  742.0000      0.0098
  743.0000      0.0097
  744.0000      0.0096
  745.0000      0.0095
  746.0000      0.0093
  747.0000      0.0092
  748.0000      0.0091
  749.0000      0.0090
  750.0000      0.0090
  751.0000      0.0089
  752.0000      0.0089
  753.0000      0.0089
  754.0000      0.0089
  755.0000      0.0088
  756.0000      0.0089
  757.0000      0.0088
  758.0000      0.0088
  759.0000      0.0087
  760.0000      0.0086
  761.0000      0.0086
  762.0000      0.0086
  763.0000      0.0085
  764.0000      0.0084
  765.0000      0.0084
  766.0000      0.0084
  767.0000      0.0084
  768.0000      0.0084
  769.0000      0.0085
  770.0000      0.0085
  771.0000      0.0085
  772.0000      0.0085
  773.0000      0.0086
  774.0000      0.0086
  775.0000      0.0086
  776.0000      0.0087
  777.0000      0.0088
  778.0000      0.0088
  779.0000      0.0088
  780.0000      0.0088
  781.0000      0.0088
  782.0000      0.0088
  783.0000      0.0088
  784.0000      0.0088
  785.0000      0.0089
  786.0000      0.0088
  787.0000      0.0089
  788.0000      0.0089
  789.0000      0.0089
  790.0000      0.0089
  791.0000      0.0089
  792.0000      0.0089
  793.0000      0.0090
  794.0000      0.0091
  795.0000      0.0091
  796.0000      0.0091
  797.0000      0.0091
  798.0000      0.0090
  799.0000      0.0091
  800.0000      0.0089
