Start Wavelength:    200.0000
End Wavelength:    800.0000
Read Mode:  ABS
Read Average:      0.1000
Nanometer Interval:      1.0000
Time:      0.0000

  200.0000      0.0064
  201.0000      0.0039
  202.0000      0.0043
  203.0000      0.0036
  204.0000      0.0043
  205.0000      0.0043
  206.0000      0.0030
  207.0000      0.0038
  208.0000      0.0039
  209.0000      0.0026
  210.0000      0.0035
  211.0000      0.0027
  212.0000      0.0029
  213.0000      0.0030
  214.0000      0.0026
  215.0000      0.0029
  216.0000      0.0025
  217.0000      0.0024
  218.0000      0.0028
  219.0000      0.0023
  220.0000      0.0022
  221.0000      0.0022
  222.0000      0.0024
  223.0000      0.0023
  224.0000      0.0022
  225.0000      0.0026
  226.0000      0.0019
  227.0000      0.0020
  228.0000      0.0016
  229.0000      0.0017
  230.0000      0.0017
  231.0000      0.0016
  232.0000      0.0016
  233.0000      0.0017
  234.0000      0.0011
  235.0000      0.0013
  236.0000      0.0014
  237.0000      0.0011
  238.0000      0.0010
  239.0000      0.0012
  240.0000      0.0009
  241.0000      0.0008
  242.0000      0.0011
  243.0000      0.0005
  244.0000      0.0009
  245.0000      0.0007
  246.0000      0.0007
  247.0000      0.0007
  248.0000      0.0008
  249.0000      0.0004
  250.0000      0.0005
  251.0000      0.0004
  252.0000      0.0006
  253.0000      0.0004
  254.0000      0.0006
  255.0000      0.0003
  256.0000      0.0002
  257.0000      0.0008
  258.0000      0.0002
  259.0000      0.0006
  260.0000      0.0005
  261.0000      0.0001
  262.0000      0.0002
  263.0000      0.0006
  264.0000      0.0000
  265.0000      0.0002
  266.0000      0.0001
  267.0000      0.0008
  268.0000      0.0002
  269.0000      0.0006
  270.0000      0.0005
  271.0000      0.0002
  272.0000      0.0003
  273.0000      0.0006
  274.0000      0.0001
  275.0000      0.0001
  276.0000      0.0002
  277.0000      0.0006
  278.0000      0.0004
  279.0000     -0.0002
  280.0000      0.0005
  281.0000     -0.0000
  282.0000     -0.0000
  283.0000      0.0001
  284.0000      0.0006
  285.0000     -0.0002
  286.0000      0.0004
  287.0000      0.0005
  288.0000      0.0005
  289.0000     -0.0006
  290.0000      0.0003
  291.0000      0.0006
  292.0000     -0.0001
  293.0000      0.0001
  294.0000      0.0002
  295.0000     -0.0001
  296.0000     -0.0002
  297.0000     -0.0003
  298.0000     -0.0002
  299.0000     -0.0008
  300.0000     -0.0005
  301.0000      0.0001
  302.0000     -0.0009
  303.0000     -0.0001
  304.0000     -0.0000
  305.0000     -0.0006
  306.0000     -0.0007
  307.0000     -0.0003
  308.0000     -0.0008
  309.0000     -0.0002
  310.0000     -0.0005
  311.0000     -0.0003
  312.0000     -0.0005
  313.0000     -0.0006
  314.0000     -0.0006
  315.0000     -0.0008
  316.0000     -0.0009
  317.0000     -0.0001
  318.0000     -0.0001
  319.0000     -0.0002
  320.0000     -0.0002
  321.0000     -0.0000
  322.0000     -0.0004
  323.0000      0.0004
  324.0000      0.0003
  325.0000     -0.0001
  326.0000     -0.0002
  327.0000      0.0002
  328.0000      0.0003
  329.0000     -0.0002
  330.0000     -0.0001
  331.0000      0.0004
  332.0000     -0.0001
  333.0000      0.0002
  334.0000     -0.0002
  335.0000      0.0003
  336.0000     -0.0001
  337.0000     -0.0002
  338.0000      0.0001
  339.0000     -0.0002
  340.0000     -0.0000
  341.0000     -0.0001
  342.0000     -0.0006
  343.0000     -0.0005
  344.0000      0.0002
  345.0000     -0.0002
  346.0000     -0.0004
  347.0000     -0.0002
  348.0000      0.0003
  349.0000     -0.0004
  350.0000      0.0001
  351.0000     -0.0001
  352.0000      0.0004
  353.0000     -0.0003
  354.0000     -0.0000
  355.0000     -0.0004
  356.0000     -0.0003
  357.0000      0.0031
  358.0000      0.0002
  359.0000      0.0004
  360.0000     -0.0004
  361.0000      0.0010
  362.0000      0.0006
  363.0000      0.0006
  364.0000      0.0006
  365.0000     -0.0004
  366.0000     -0.0011
  367.0000     -0.0002
  368.0000      0.0002
  369.0000      0.0012
  370.0000      0.0005
  371.0000     -0.0000
  372.0000     -0.0002
  373.0000      0.0015
  374.0000      0.0003
  375.0000      0.0001
  376.0000     -0.0004
  377.0000     -0.0004
  378.0000      0.0009
  379.0000      0.0006
  380.0000      0.0008
  381.0000     -0.0002
  382.0000      0.0008
  383.0000     -0.0003
  384.0000      0.0006
  385.0000      0.0006
  386.0000      0.0010
  387.0000      0.0004
  388.0000     -0.0000
  389.0000      0.0002
  390.0000      0.0005
  391.0000     -0.0002
  392.0000      0.0009
  393.0000      0.0007
  394.0000     -0.0006
  395.0000     -0.0001
  396.0000      0.0005
  397.0000     -0.0000
  398.0000      0.0001
  399.0000      0.0001
  400.0000      0.0002
  401.0000     -0.0004
  402.0000     -0.0002
  403.0000      0.0005
  404.0000      0.0006
  405.0000     -0.0000
  406.0000     -0.0007
  407.0000      0.0003
  408.0000     -0.0002
  409.0000     -0.0002
  410.0000      0.0002
  411.0000      0.0004
  412.0000      0.0004
  413.0000      0.0002
  414.0000     -0.0004
  415.0000     -0.0001
  416.0000     -0.0000
  417.0000     -0.0000
  418.0000     -0.0000
  419.0000      0.0001
  420.0000     -0.0000
  421.0000     -0.0000
  422.0000     -0.0000
  423.0000     -0.0001
  424.0000     -0.0001
  425.0000     -0.0000
  426.0000     -0.0000
  427.0000      0.0001
  428.0000     -0.0001
  429.0000     -0.0002
  430.0000     -0.0001
  431.0000     -0.0001
  432.0000     -0.0001
  433.0000     -0.0001
  434.0000     -0.0001
  435.0000     -0.0000
  436.0000     -0.0001
  437.0000     -0.0000
  438.0000     -0.0000
  439.0000     -0.0001
  440.0000     -0.0001
  441.0000     -0.0001
  442.0000     -0.0001
  443.0000     -0.0002
  444.0000     -0.0002
  445.0000     -0.0001
  446.0000     -0.0002
  447.0000     -0.0002
  448.0000     -0.0002
  449.0000     -0.0003
  450.0000     -0.0003
  451.0000     -0.0002
  452.0000     -0.0003
  453.0000     -0.0003
  454.0000     -0.0003
  455.0000     -0.0004
  456.0000     -0.0004
  457.0000     -0.0003
  458.0000     -0.0003
  459.0000     -0.0003
  460.0000     -0.0003
  461.0000     -0.0002
  462.0000     -0.0002
  463.0000     -0.0002
  464.0000     -0.0002
  465.0000     -0.0001
  466.0000     -0.0001
  467.0000     -0.0000
  468.0000     -0.0000
  469.0000     -0.0000
  470.0000     -0.0000
  471.0000      0.0000
  472.0000     -0.0000
  473.0000      0.0000
  474.0000     -0.0001
  475.0000     -0.0001
  476.0000     -0.0001
  477.0000     -0.0001
  478.0000     -0.0001
  479.0000     -0.0001
  480.0000     -0.0002
  481.0000     -0.0002
  482.0000     -0.0002
  483.0000     -0.0001
  484.0000     -0.0002
  485.0000     -0.0003
  486.0000     -0.0003
  487.0000     -0.0002
  488.0000     -0.0002
  489.0000     -0.0003
  490.0000     -0.0003
  491.0000     -0.0003
  492.0000     -0.0003
  493.0000     -0.0002
  494.0000     -0.0002
  495.0000     -0.0003
  496.0000     -0.0003
  497.0000     -0.0003
  498.0000     -0.0003
  499.0000     -0.0003
  500.0000     -0.0003
  501.0000     -0.0003
  502.0000     -0.0003
  503.0000     -0.0003
  504.0000     -0.0004
  505.0000     -0.0003
  506.0000     -0.0003
  507.0000     -0.0003
  508.0000     -0.0004
  509.0000     -0.0004
  510.0000     -0.0004
  511.0000     -0.0004
  512.0000     -0.0004
  513.0000     -0.0004
  514.0000     -0.0003
  515.0000     -0.0003
  516.0000     -0.0003
  517.0000     -0.0003
  518.0000     -0.0004
  519.0000     -0.0004
  520.0000     -0.0004
  521.0000     -0.0004
  522.0000     -0.0004
  523.0000     -0.0004
  524.0000     -0.0004
  525.0000     -0.0004
  526.0000     -0.0004
  527.0000     -0.0004
  528.0000     -0.0004
  529.0000     -0.0004
  530.0000     -0.0004
  531.0000     -0.0004
  532.0000     -0.0004
  533.0000     -0.0004
  534.0000     -0.0004
  535.0000     -0.0004
  536.0000     -0.0004
  537.0000     -0.0004
  538.0000     -0.0005
  539.0000     -0.0005
  540.0000     -0.0004
  541.0000     -0.0004
  542.0000     -0.0004
  543.0000     -0.0004
  544.0000     -0.0005
  545.0000     -0.0004
  546.0000     -0.0005
  547.0000     -0.0005
  548.0000     -0.0005
  549.0000     -0.0005
  550.0000     -0.0006
  551.0000     -0.0006
  552.0000     -0.0006
  553.0000     -0.0006
  554.0000     -0.0006
  555.0000     -0.0006
  556.0000     -0.0006
  557.0000     -0.0004
  558.0000     -0.0003
  559.0000     -0.0004
  560.0000     -0.0004
  561.0000     -0.0004
  562.0000     -0.0004
  563.0000     -0.0005
  564.0000     -0.0005
  565.0000     -0.0005
  566.0000     -0.0005
  567.0000     -0.0006
  568.0000     -0.0005
  569.0000     -0.0006
  570.0000     -0.0006
  571.0000     -0.0007
  572.0000     -0.0006
  573.0000     -0.0007
  574.0000     -0.0007
  575.0000     -0.0007
  576.0000     -0.0007
  577.0000     -0.0007
  578.0000     -0.0007
  579.0000     -0.0007
  580.0000     -0.0007
  581.0000     -0.0007
  582.0000     -0.0007
  583.0000     -0.0007
  584.0000     -0.0007
  585.0000     -0.0007
  586.0000     -0.0007
  587.0000     -0.0007
  588.0000     -0.0007
  589.0000     -0.0007
  590.0000     -0.0007
  591.0000     -0.0007
  592.0000     -0.0007
  593.0000     -0.0007
  594.0000     -0.0007
  595.0000     -0.0007
  596.0000     -0.0007
  597.0000     -0.0007
  598.0000     -0.0007
  599.0000     -0.0008
  600.0000     -0.0008
  601.0000     -0.0008
  602.0000     -0.0008
  603.0000     -0.0008
  604.0000     -0.0008
  605.0000     -0.0008
  606.0000     -0.0008
  607.0000     -0.0008
  608.0000     -0.0008
  609.0000     -0.0008
  610.0000     -0.0008
  611.0000     -0.0008
  612.0000     -0.0008
  613.0000     -0.0008
  614.0000     -0.0008
  615.0000     -0.0008
  616.0000     -0.0008
  617.0000     -0.0008
  618.0000     -0.0008
  619.0000     -0.0008
  620.0000     -0.0008
  621.0000     -0.0008
  622.0000     -0.0007
  623.0000     -0.0008
  624.0000     -0.0007
  625.0000     -0.0007
  626.0000     -0.0007
  627.0000     -0.0007
  628.0000     -0.0007
  629.0000     -0.0007
  630.0000     -0.0007
  631.0000     -0.0007
  632.0000     -0.0007
  633.0000     -0.0007
  634.0000     -0.0007
  635.0000     -0.0007
  636.0000     -0.0006
  637.0000     -0.0006
  638.0000     -0.0006
  639.0000     -0.0006
  640.0000     -0.0006
  641.0000     -0.0006
  642.0000     -0.0006
  643.0000     -0.0006
  644.0000     -0.0006
  645.0000     -0.0006
  646.0000     -0.0006
  647.0000     -0.0006
  648.0000     -0.0006
  649.0000     -0.0006
  650.0000     -0.0006
  651.0000     -0.0006
  652.0000     -0.0006
  653.0000     -0.0006
  654.0000     -0.0006
  655.0000     -0.0005
  656.0000     -0.0006
  657.0000     -0.0005
  658.0000     -0.0006
  659.0000     -0.0006
  660.0000     -0.0006
  661.0000     -0.0005
  662.0000     -0.0005
  663.0000     -0.0006
  664.0000     -0.0006
  665.0000     -0.0005
  666.0000     -0.0005
  667.0000     -0.0006
  668.0000     -0.0006
  669.0000     -0.0005
  670.0000     -0.0005
  671.0000     -0.0005
  672.0000     -0.0005
  673.0000     -0.0006
  674.0000     -0.0005
  675.0000     -0.0005
  676.0000     -0.0005
  677.0000     -0.0005
  678.0000     -0.0005
  679.0000     -0.0005
  680.0000     -0.0005
  681.0000     -0.0005
  682.0000     -0.0005
  683.0000     -0.0005
  684.0000     -0.0005
  685.0000     -0.0005
  686.0000     -0.0005
  687.0000     -0.0005
  688.0000     -0.0005
  689.0000     -0.0005
  690.0000     -0.0005
  691.0000     -0.0005
  692.0000     -0.0005
  693.0000     -0.0005
  694.0000     -0.0005
  695.0000     -0.0005
  696.0000     -0.0005
  697.0000     -0.0005
  698.0000     -0.0004
  699.0000     -0.0005
  700.0000     -0.0004
  701.0000     -0.0004
  702.0000     -0.0005
  703.0000     -0.0004
  704.0000     -0.0004
  705.0000     -0.0004
  706.0000     -0.0004
  707.0000     -0.0004
  708.0000     -0.0004
  709.0000     -0.0004
  710.0000     -0.0004
  711.0000     -0.0004
  712.0000     -0.0004
  713.0000     -0.0004
  714.0000     -0.0004
  715.0000     -0.0004
  716.0000     -0.0004
  717.0000     -0.0004
  718.0000     -0.0004
  719.0000     -0.0004
  720.0000     -0.0003
  721.0000     -0.0004
  722.0000     -0.0003
  723.0000     -0.0004
  724.0000     -0.0004
  725.0000     -0.0004
  726.0000     -0.0004
  727.0000     -0.0003
  728.0000     -0.0003
  729.0000     -0.0003
  730.0000     -0.0003
  731.0000     -0.0003
  732.0000     -0.0003
  733.0000     -0.0002
  734.0000     -0.0002
  735.0000     -0.0002
  736.0000     -0.0001
  737.0000     -0.0001
  738.0000     -0.0000
  739.0000     -0.0001
  740.0000     -0.0001
  741.0000     -0.0000
  742.0000     -0.0001
  743.0000     -0.0001
  744.0000     -0.0002
  745.0000     -0.0001
  746.0000     -0.0001
  747.0000     -0.0001
  748.0000     -0.0001
  749.0000     -0.0002
  750.0000     -0.0001
  751.0000     -0.0001
  752.0000     -0.0002
  753.0000     -0.0002
  754.0000     -0.0002
  755.0000     -0.0002
  756.0000     -0.0002
  757.0000     -0.0001
  758.0000     -0.0002
  759.0000     -0.0002
  760.0000     -0.0002
  761.0000     -0.0002
  762.0000     -0.0002
  763.0000     -0.0002
  764.0000     -0.0003
  765.0000     -0.0002
  766.0000     -0.0002
  767.0000     -0.0003
  768.0000     -0.0003
  769.0000     -0.0002
  770.0000     -0.0003
  771.0000     -0.0003
  772.0000     -0.0003
  773.0000     -0.0002
  774.0000     -0.0002
  775.0000     -0.0002
  776.0000     -0.0002
  777.0000     -0.0002
  778.0000     -0.0003
  779.0000     -0.0003
  780.0000     -0.0002
  781.0000     -0.0003
  782.0000     -0.0003
  783.0000     -0.0003
  784.0000     -0.0002
  785.0000     -0.0003
  786.0000     -0.0003
  787.0000     -0.0003
  788.0000     -0.0003
  789.0000     -0.0003
  790.0000     -0.0002
  791.0000     -0.0002
  792.0000     -0.0003
  793.0000     -0.0002
  794.0000     -0.0002
  795.0000     -0.0002
  796.0000     -0.0002
  797.0000     -0.0002
  798.0000     -0.0002
  799.0000     -0.0002
  800.0000     -0.0003
