Start Wavelength:    200.0000
End Wavelength:    800.0000
Read Mode:  ABS
Read Average:      0.1000
Nanometer Interval:      1.0000
Time:      0.0000

  200.0000      2.3532
  201.0000      2.0256
  202.0000      1.8290
  203.0000      1.6322
  204.0000      1.4704
  205.0000      1.3373
  206.0000      1.2192
  207.0000      1.1238
  208.0000      1.0466
  209.0000      0.9705
  210.0000      0.9090
  211.0000      0.8535
  212.0000      0.8083
  213.0000      0.7652
  214.0000      0.7294
  215.0000      0.6986
  216.0000      0.6732
  217.0000      0.6486
  218.0000      0.6281
  219.0000      0.6083
  220.0000      0.5923
  221.0000      0.5776
  222.0000      0.5645
  223.0000      0.5516
  224.0000      0.5399
  225.0000      0.5283
  226.0000      0.5192
  227.0000      0.5097
  228.0000      0.5003
  229.0000      0.4917
  230.0000      0.4837
  231.0000      0.4764
  232.0000      0.4689
  233.0000      0.4605
  234.0000      0.4541
  235.0000      0.4480
  236.0000      0.4410
  237.0000      0.4338
  238.0000      0.4286
  239.0000      0.4223
  240.0000      0.4093
  241.0000      0.4109
  242.0000      0.4052
  243.0000      0.4015
  244.0000      0.3964
  245.0000      0.3912
  246.0000      0.3874
  247.0000      0.3839
  248.0000      0.3807
  249.0000      0.3771
  250.0000      0.3743
  251.0000      0.3708
  252.0000      0.3669
  253.0000      0.3645
  254.0000      0.3606
  255.0000      0.3582
  256.0000      0.3548
  257.0000      0.3514
  258.0000      0.3481
  259.0000      0.3449
  260.0000      0.3419
  261.0000      0.3387
  262.0000      0.3355
  263.0000      0.3321
  264.0000      0.3294
  265.0000      0.3268
  266.0000      0.3234
  267.0000      0.3197
  268.0000      0.3167
  269.0000      0.3132
  270.0000      0.3100
  271.0000      0.3065
  272.0000      0.3024
  273.0000      0.3002
  274.0000      0.2966
  275.0000      0.2930
  276.0000      0.2896
  277.0000      0.2865
  278.0000      0.2836
  279.0000      0.2791
  280.0000      0.2766
  281.0000      0.2733
  282.0000      0.2691
  283.0000      0.2666
  284.0000      0.2620
  285.0000      0.2588
  286.0000      0.2558
  287.0000      0.2525
  288.0000      0.2483
  289.0000      0.2451
  290.0000      0.2419
  291.0000      0.2388
  292.0000      0.2348
  293.0000      0.2313
  294.0000      0.2280
  295.0000      0.2243
  296.0000      0.2214
  297.0000      0.2181
  298.0000      0.2147
  299.0000      0.2126
  300.0000      0.2101
  301.0000      0.2066
  302.0000      0.2041
  303.0000      0.2011
  304.0000      0.1990
  305.0000      0.1961
  306.0000      0.1932
  307.0000      0.1905
  308.0000      0.1891
  309.0000      0.1860
  310.0000      0.1828
  311.0000      0.1802
  312.0000      0.1785
  313.0000      0.1762
  314.0000      0.1739
  315.0000      0.1721
  316.0000      0.1693
  317.0000      0.1675
  318.0000      0.1652
  319.0000      0.1627
  320.0000      0.1618
  321.0000      0.1611
  322.0000      0.1568
  323.0000      0.1546
  324.0000      0.1535
  325.0000      0.1513
  326.0000      0.1487
  327.0000      0.1470
  328.0000      0.1458
  329.0000      0.1440
  330.0000      0.1417
  331.0000      0.1395
  332.0000      0.1382
  333.0000      0.1362
  334.0000      0.1348
  335.0000      0.1326
  336.0000      0.1312
  337.0000      0.1295
  338.0000      0.1281
  339.0000      0.1262
  340.0000      0.1251
  341.0000      0.1232
  342.0000      0.1217
  343.0000      0.1198
  344.0000      0.1184
  345.0000      0.1168
  346.0000      0.1154
  347.0000      0.1138
  348.0000      0.1126
  349.0000      0.1112
  350.0000      0.1098
  351.0000      0.1084
  352.0000      0.1070
  353.0000      0.1055
  354.0000      0.1047
  355.0000      0.1036
  356.0000      0.1027
  357.0000      0.1005
  358.0000      0.1004
  359.0000      0.0991
  360.0000      0.0958
  361.0000      0.0968
  362.0000      0.0960
  363.0000      0.0950
  364.0000      0.0924
  365.0000      0.0913
  366.0000      0.0922
  367.0000      0.0901
  368.0000      0.0882
  369.0000      0.0876
  370.0000      0.0868
  371.0000      0.0868
  372.0000      0.0852
  373.0000      0.0829
  374.0000      0.0841
  375.0000      0.0829
  376.0000      0.0814
  377.0000      0.0798
  378.0000      0.0799
  379.0000      0.0786
  380.0000      0.0777
  381.0000      0.0764
  382.0000      0.0767
  383.0000      0.0754
  384.0000      0.0745
  385.0000      0.0731
  386.0000      0.0728
  387.0000      0.0721
  388.0000      0.0711
  389.0000      0.0698
  390.0000      0.0695
  391.0000      0.0687
  392.0000      0.0674
  393.0000      0.0668
  394.0000      0.0668
  395.0000      0.0656
  396.0000      0.0646
  397.0000      0.0634
  398.0000      0.0638
  399.0000      0.0626
  400.0000      0.0615
  401.0000      0.0608
  402.0000      0.0604
  403.0000      0.0596
  404.0000      0.0586
  405.0000      0.0583
  406.0000      0.0575
  407.0000      0.0566
  408.0000      0.0562
  409.0000      0.0553
  410.0000      0.0547
  411.0000      0.0542
  412.0000      0.0535
  413.0000      0.0528
  414.0000      0.0522
  415.0000      0.0521
  416.0000      0.0516
  417.0000      0.0512
  418.0000      0.0507
  419.0000      0.0502
  420.0000      0.0499
  421.0000      0.0493
  422.0000      0.0489
  423.0000      0.0484
  424.0000      0.0478
  425.0000      0.0474
  426.0000      0.0469
  427.0000      0.0466
  428.0000      0.0459
  429.0000      0.0455
  430.0000      0.0449
  431.0000      0.0446
  432.0000      0.0440
  433.0000      0.0436
  434.0000      0.0432
  435.0000      0.0429
  436.0000      0.0423
  437.0000      0.0420
  438.0000      0.0416
  439.0000      0.0412
  440.0000      0.0409
  441.0000      0.0406
  442.0000      0.0404
  443.0000      0.0401
  444.0000      0.0399
  445.0000      0.0396
  446.0000      0.0394
  447.0000      0.0390
  448.0000      0.0386
  449.0000      0.0383
  450.0000      0.0380
  451.0000      0.0378
  452.0000      0.0372
  453.0000      0.0370
  454.0000      0.0367
  455.0000      0.0364
  456.0000      0.0360
  457.0000      0.0357
  458.0000      0.0354
  459.0000      0.0350
  460.0000      0.0347
  461.0000      0.0344
  462.0000      0.0340
  463.0000      0.0336
  464.0000      0.0334
  465.0000      0.0330
  466.0000      0.0327
  467.0000      0.0323
  468.0000      0.0321
  469.0000      0.0318
  470.0000      0.0315
  471.0000      0.0313
  472.0000      0.0310
  473.0000      0.0309
  474.0000      0.0306
  475.0000      0.0304
  476.0000      0.0302
  477.0000      0.0301
  478.0000      0.0298
  479.0000      0.0296
  480.0000      0.0294
  481.0000      0.0292
  482.0000      0.0290
  483.0000      0.0289
  484.0000      0.0287
  485.0000      0.0285
  486.0000      0.0284
  487.0000      0.0282
  488.0000      0.0280
  489.0000      0.0279
  490.0000      0.0277
  491.0000      0.0275
  492.0000      0.0274
  493.0000      0.0272
  494.0000      0.0271
  495.0000      0.0270
  496.0000      0.0268
  497.0000      0.0266
  498.0000      0.0265
  499.0000      0.0264
  500.0000      0.0262
  501.0000      0.0260
  502.0000      0.0259
  503.0000      0.0258
  504.0000      0.0257
  505.0000      0.0255
  506.0000      0.0254
  507.0000      0.0253
  508.0000      0.0251
  509.0000      0.0251
  510.0000      0.0250
  511.0000      0.0249
  512.0000      0.0248
  513.0000      0.0246
  514.0000      0.0245
  515.0000      0.0243
  516.0000      0.0242
  517.0000      0.0241
  518.0000      0.0240
  519.0000      0.0239
  520.0000      0.0238
  521.0000      0.0237
  522.0000      0.0237
  523.0000      0.0237
  524.0000      0.0236
  525.0000      0.0236
  526.0000      0.0235
  527.0000      0.0235
  528.0000      0.0234
  529.0000      0.0233
  530.0000      0.0232
  531.0000      0.0231
  532.0000      0.0230
  533.0000      0.0229
  534.0000      0.0228
  535.0000      0.0226
  536.0000      0.0226
  537.0000      0.0225
  538.0000      0.0224
  539.0000      0.0224
  540.0000      0.0223
  541.0000      0.0223
  542.0000      0.0223
  543.0000      0.0222
  544.0000      0.0220
  545.0000      0.0219
  546.0000      0.0218
  547.0000      0.0217
  548.0000      0.0217
  549.0000      0.0216
  550.0000      0.0215
  551.0000      0.0215
  552.0000      0.0213
  553.0000      0.0211
  554.0000      0.0209
  555.0000      0.0208
  556.0000      0.0209
  557.0000      0.0198
  558.0000      0.0197
  559.0000      0.0197
  560.0000      0.0196
  561.0000      0.0197
  562.0000      0.0197
  563.0000      0.0197
  564.0000      0.0196
  565.0000      0.0196
  566.0000      0.0195
  567.0000      0.0194
  568.0000      0.0193
  569.0000      0.0192
  570.0000      0.0191
  571.0000      0.0190
  572.0000      0.0190
  573.0000      0.0189
  574.0000      0.0189
  575.0000      0.0189
  576.0000      0.0188
  577.0000      0.0187
  578.0000      0.0187
  579.0000      0.0186
  580.0000      0.0184
  581.0000      0.0184
  582.0000      0.0182
  583.0000      0.0181
  584.0000      0.0179
  585.0000      0.0179
  586.0000      0.0178
  587.0000      0.0177
  588.0000      0.0176
  589.0000      0.0176
  590.0000      0.0174
  591.0000      0.0172
  592.0000      0.0170
  593.0000      0.0170
  594.0000      0.0169
  595.0000      0.0168
  596.0000      0.0168
  597.0000      0.0167
  598.0000      0.0166
  599.0000      0.0165
  600.0000      0.0164
  601.0000      0.0164
  602.0000      0.0163
  603.0000      0.0162
  604.0000      0.0160
  605.0000      0.0159
  606.0000      0.0159
  607.0000      0.0159
  608.0000      0.0158
  609.0000      0.0158
  610.0000      0.0158
  611.0000      0.0158
  612.0000      0.0158
  613.0000      0.0157
  614.0000      0.0157
  615.0000      0.0157
  616.0000      0.0157
  617.0000      0.0157
  618.0000      0.0157
  619.0000      0.0156
  620.0000      0.0156
  621.0000      0.0154
  622.0000      0.0153
  623.0000      0.0152
  624.0000      0.0151
  625.0000      0.0151
  626.0000      0.0150
  627.0000      0.0150
  628.0000      0.0149
  629.0000      0.0148
  630.0000      0.0148
  631.0000      0.0147
  632.0000      0.0146
  633.0000      0.0146
  634.0000      0.0145
  635.0000      0.0144
  636.0000      0.0143
  637.0000      0.0143
  638.0000      0.0142
  639.0000      0.0142
  640.0000      0.0141
  641.0000      0.0141
  642.0000      0.0140
  643.0000      0.0140
  644.0000      0.0139
  645.0000      0.0139
  646.0000      0.0138
  647.0000      0.0138
  648.0000      0.0137
  649.0000      0.0137
  650.0000      0.0136
  651.0000      0.0136
  652.0000      0.0135
  653.0000      0.0134
  654.0000      0.0133
  655.0000      0.0133
  656.0000      0.0133
  657.0000      0.0133
  658.0000      0.0132
  659.0000      0.0132
  660.0000      0.0131
  661.0000      0.0131
  662.0000      0.0131
  663.0000      0.0131
  664.0000      0.0130
  665.0000      0.0129
  666.0000      0.0129
  667.0000      0.0129
  668.0000      0.0129
  669.0000      0.0129
  670.0000      0.0129
  671.0000      0.0128
  672.0000      0.0128
  673.0000      0.0128
  674.0000      0.0127
  675.0000      0.0127
  676.0000      0.0126
  677.0000      0.0126
  678.0000      0.0125
  679.0000      0.0125
  680.0000      0.0124
  681.0000      0.0123
  682.0000      0.0122
  683.0000      0.0122
  684.0000      0.0121
  685.0000      0.0121
  686.0000      0.0121
  687.0000      0.0120
  688.0000      0.0119
  689.0000      0.0119
  690.0000      0.0118
  691.0000      0.0118
  692.0000      0.0117
  693.0000      0.0116
  694.0000      0.0116
  695.0000      0.0116
  696.0000      0.0115
  697.0000      0.0115
  698.0000      0.0114
  699.0000      0.0114
  700.0000      0.0114
  701.0000      0.0113
  702.0000      0.0113
  703.0000      0.0113
  704.0000      0.0113
  705.0000      0.0113
  706.0000      0.0113
  707.0000      0.0112
  708.0000      0.0112
  709.0000      0.0112
  710.0000      0.0112
  711.0000      0.0112
  712.0000      0.0112
  713.0000      0.0112
  714.0000      0.0112
  715.0000      0.0112
  716.0000      0.0112
  717.0000      0.0111
  718.0000      0.0111
  719.0000      0.0111
  720.0000      0.0110
  721.0000      0.0110
  722.0000      0.0110
  723.0000      0.0111
  724.0000      0.0109
  725.0000      0.0109
  726.0000      0.0108
  727.0000      0.0107
  728.0000      0.0106
  729.0000      0.0104
  730.0000      0.0103
  731.0000      0.0103
  732.0000      0.0102
  733.0000      0.0101
  734.0000      0.0100
  735.0000      0.0100
  736.0000      0.0097
  737.0000      0.0097
  738.0000      0.0096
  739.0000      0.0096
  740.0000      0.0097
  741.0000      0.0096
  742.0000      0.0096
  743.0000      0.0096
  744.0000      0.0096
  745.0000      0.0096
  746.0000      0.0095
  747.0000      0.0096
  748.0000      0.0095
  749.0000      0.0095
  750.0000      0.0094
  751.0000      0.0094
  752.0000      0.0093
  753.0000      0.0093
  754.0000      0.0092
  755.0000      0.0092
  756.0000      0.0091
  757.0000      0.0091
  758.0000      0.0091
  759.0000      0.0091
  760.0000      0.0090
  761.0000      0.0090
  762.0000      0.0090
  763.0000      0.0090
  764.0000      0.0090
  765.0000      0.0089
  766.0000      0.0090
  767.0000      0.0090
  768.0000      0.0089
  769.0000      0.0090
  770.0000      0.0089
  771.0000      0.0089
  772.0000      0.0088
  773.0000      0.0089
  774.0000      0.0088
  775.0000      0.0088
  776.0000      0.0088
  777.0000      0.0088
  778.0000      0.0089
  779.0000      0.0089
  780.0000      0.0089
  781.0000      0.0089
  782.0000      0.0089
  783.0000      0.0089
  784.0000      0.0089
  785.0000      0.0088
  786.0000      0.0088
  787.0000      0.0088
  788.0000      0.0088
  789.0000      0.0088
  790.0000      0.0088
  791.0000      0.0087
  792.0000      0.0087
  793.0000      0.0086
  794.0000      0.0086
  795.0000      0.0085
  796.0000      0.0084
  797.0000      0.0084
  798.0000      0.0083
  799.0000      0.0083
  800.0000      0.0082
