Start Wavelength:    200.0000
End Wavelength:    800.0000
Read Mode:  ABS
Read Average:      0.1000
Nanometer Interval:      1.0000
Time:      0.0000

  200.0000      2.3880
  201.0000      1.9179
  202.0000      1.7305
  203.0000      1.6053
  204.0000      1.4449
  205.0000      1.3314
  206.0000      1.2470
  207.0000      1.1605
  208.0000      1.0965
  209.0000      1.0303
  210.0000      0.9857
  211.0000      0.9379
  212.0000      0.8950
  213.0000      0.8585
  214.0000      0.8309
  215.0000      0.8024
  216.0000      0.7762
  217.0000      0.7541
  218.0000      0.7361
  219.0000      0.7190
  220.0000      0.7031
  221.0000      0.6890
  222.0000      0.6751
  223.0000      0.6634
  224.0000      0.6506
  225.0000      0.6390
  226.0000      0.6292
  227.0000      0.6198
  228.0000      0.6088
  229.0000      0.5993
  230.0000      0.5903
  231.0000      0.5818
  232.0000      0.5730
  233.0000      0.5638
  234.0000      0.5557
  235.0000      0.5479
  236.0000      0.5399
  237.0000      0.5314
  238.0000      0.5250
  239.0000      0.5176
  240.0000      0.5110
  241.0000      0.5035
  242.0000      0.4974
  243.0000      0.4922
  244.0000      0.4870
  245.0000      0.4802
  246.0000      0.4760
  247.0000      0.4711
  248.0000      0.4655
  249.0000      0.4610
  250.0000      0.4568
  251.0000      0.4532
  252.0000      0.4484
  253.0000      0.4450
  254.0000      0.4402
  255.0000      0.4376
  256.0000      0.4337
  257.0000      0.4292
  258.0000      0.4254
  259.0000      0.4224
  260.0000      0.4188
  261.0000      0.4151
  262.0000      0.4106
  263.0000      0.4073
  264.0000      0.4032
  265.0000      0.4001
  266.0000      0.3950
  267.0000      0.3908
  268.0000      0.3879
  269.0000      0.3836
  270.0000      0.3782
  271.0000      0.3754
  272.0000      0.3711
  273.0000      0.3676
  274.0000      0.3630
  275.0000      0.3596
  276.0000      0.3560
  277.0000      0.3518
  278.0000      0.3474
  279.0000      0.3433
  280.0000      0.3399
  281.0000      0.3363
  282.0000      0.3311
  283.0000      0.3269
  284.0000      0.3228
  285.0000      0.3188
  286.0000      0.3146
  287.0000      0.3099
  288.0000      0.3056
  289.0000      0.3023
  290.0000      0.2981
  291.0000      0.2932
  292.0000      0.2889
  293.0000      0.2859
  294.0000      0.2815
  295.0000      0.2770
  296.0000      0.2733
  297.0000      0.2702
  298.0000      0.2663
  299.0000      0.2626
  300.0000      0.2590
  301.0000      0.2558
  302.0000      0.2535
  303.0000      0.2485
  304.0000      0.2454
  305.0000      0.2432
  306.0000      0.2398
  307.0000      0.2372
  308.0000      0.2338
  309.0000      0.2312
  310.0000      0.2274
  311.0000      0.2240
  312.0000      0.2211
  313.0000      0.2191
  314.0000      0.2156
  315.0000      0.2131
  316.0000      0.2096
  317.0000      0.2079
  318.0000      0.2054
  319.0000      0.2017
  320.0000      0.1989
  321.0000      0.1988
  322.0000      0.1920
  323.0000      0.1898
  324.0000      0.1883
  325.0000      0.1849
  326.0000      0.1818
  327.0000      0.1804
  328.0000      0.1785
  329.0000      0.1748
  330.0000      0.1727
  331.0000      0.1702
  332.0000      0.1686
  333.0000      0.1657
  334.0000      0.1632
  335.0000      0.1613
  336.0000      0.1593
  337.0000      0.1571
  338.0000      0.1547
  339.0000      0.1528
  340.0000      0.1509
  341.0000      0.1487
  342.0000      0.1463
  343.0000      0.1448
  344.0000      0.1428
  345.0000      0.1409
  346.0000      0.1388
  347.0000      0.1366
  348.0000      0.1355
  349.0000      0.1337
  350.0000      0.1314
  351.0000      0.1297
  352.0000      0.1281
  353.0000      0.1258
  354.0000      0.1242
  355.0000      0.1226
  356.0000      0.1222
  357.0000      0.1205
  358.0000      0.1193
  359.0000      0.1159
  360.0000      0.1161
  361.0000      0.1144
  362.0000      0.1127
  363.0000      0.1097
  364.0000      0.1092
  365.0000      0.1078
  366.0000      0.1056
  367.0000      0.1046
  368.0000      0.1033
  369.0000      0.1029
  370.0000      0.0997
  371.0000      0.0988
  372.0000      0.0982
  373.0000      0.0963
  374.0000      0.0961
  375.0000      0.0936
  376.0000      0.0928
  377.0000      0.0912
  378.0000      0.0908
  379.0000      0.0891
  380.0000      0.0877
  381.0000      0.0879
  382.0000      0.0867
  383.0000      0.0842
  384.0000      0.0839
  385.0000      0.0833
  386.0000      0.0825
  387.0000      0.0809
  388.0000      0.0800
  389.0000      0.0794
  390.0000      0.0776
  391.0000      0.0768
  392.0000      0.0761
  393.0000      0.0754
  394.0000      0.0744
  395.0000      0.0735
  396.0000      0.0725
  397.0000      0.0720
  398.0000      0.0710
  399.0000      0.0699
  400.0000      0.0692
  401.0000      0.0685
  402.0000      0.0675
  403.0000      0.0665
  404.0000      0.0662
  405.0000      0.0659
  406.0000      0.0646
  407.0000      0.0638
  408.0000      0.0632
  409.0000      0.0626
  410.0000      0.0616
  411.0000      0.0612
  412.0000      0.0606
  413.0000      0.0598
  414.0000      0.0586
  415.0000      0.0586
  416.0000      0.0580
  417.0000      0.0574
  418.0000      0.0569
  419.0000      0.0564
  420.0000      0.0557
  421.0000      0.0551
  422.0000      0.0545
  423.0000      0.0540
  424.0000      0.0534
  425.0000      0.0530
  426.0000      0.0525
  427.0000      0.0521
  428.0000      0.0513
  429.0000      0.0507
  430.0000      0.0502
  431.0000      0.0497
  432.0000      0.0491
  433.0000      0.0484
  434.0000      0.0479
  435.0000      0.0474
  436.0000      0.0467
  437.0000      0.0460
  438.0000      0.0455
  439.0000      0.0448
  440.0000      0.0444
  441.0000      0.0439
  442.0000      0.0434
  443.0000      0.0430
  444.0000      0.0425
  445.0000      0.0420
  446.0000      0.0416
  447.0000      0.0412
  448.0000      0.0406
  449.0000      0.0401
  450.0000      0.0396
  451.0000      0.0392
  452.0000      0.0386
  453.0000      0.0382
  454.0000      0.0378
  455.0000      0.0374
  456.0000      0.0370
  457.0000      0.0367
  458.0000      0.0365
  459.0000      0.0362
  460.0000      0.0359
  461.0000      0.0356
  462.0000      0.0353
  463.0000      0.0350
  464.0000      0.0346
  465.0000      0.0344
  466.0000      0.0341
  467.0000      0.0337
  468.0000      0.0335
  469.0000      0.0332
  470.0000      0.0329
  471.0000      0.0325
  472.0000      0.0322
  473.0000      0.0320
  474.0000      0.0316
  475.0000      0.0313
  476.0000      0.0310
  477.0000      0.0307
  478.0000      0.0303
  479.0000      0.0299
  480.0000      0.0298
  481.0000      0.0295
  482.0000      0.0293
  483.0000      0.0291
  484.0000      0.0290
  485.0000      0.0289
  486.0000      0.0289
  487.0000      0.0288
  488.0000      0.0288
  489.0000      0.0287
  490.0000      0.0285
  491.0000      0.0284
  492.0000      0.0283
  493.0000      0.0281
  494.0000      0.0279
  495.0000      0.0278
  496.0000      0.0276
  497.0000      0.0273
  498.0000      0.0272
  499.0000      0.0270
  500.0000      0.0268
  501.0000      0.0265
  502.0000      0.0264
  503.0000      0.0263
  504.0000      0.0261
  505.0000      0.0259
  506.0000      0.0258
  507.0000      0.0256
  508.0000      0.0253
  509.0000      0.0252
  510.0000      0.0249
  511.0000      0.0247
  512.0000      0.0245
  513.0000      0.0243
  514.0000      0.0241
  515.0000      0.0238
  516.0000      0.0235
  517.0000      0.0233
  518.0000      0.0231
  519.0000      0.0229
  520.0000      0.0227
  521.0000      0.0225
  522.0000      0.0223
  523.0000      0.0221
  524.0000      0.0221
  525.0000      0.0219
  526.0000      0.0218
  527.0000      0.0215
  528.0000      0.0211
  529.0000      0.0210
  530.0000      0.0208
  531.0000      0.0207
  532.0000      0.0206
  533.0000      0.0205
  534.0000      0.0203
  535.0000      0.0202
  536.0000      0.0201
  537.0000      0.0199
  538.0000      0.0197
  539.0000      0.0197
  540.0000      0.0196
  541.0000      0.0195
  542.0000      0.0194
  543.0000      0.0193
  544.0000      0.0192
  545.0000      0.0191
  546.0000      0.0191
  547.0000      0.0190
  548.0000      0.0189
  549.0000      0.0188
  550.0000      0.0187
  551.0000      0.0187
  552.0000      0.0185
  553.0000      0.0184
  554.0000      0.0183
  555.0000      0.0182
  556.0000      0.0181
  557.0000      0.0194
  558.0000      0.0193
  559.0000      0.0192
  560.0000      0.0190
  561.0000      0.0189
  562.0000      0.0188
  563.0000      0.0187
  564.0000      0.0186
  565.0000      0.0185
  566.0000      0.0184
  567.0000      0.0184
  568.0000      0.0183
  569.0000      0.0182
  570.0000      0.0182
  571.0000      0.0181
  572.0000      0.0181
  573.0000      0.0180
  574.0000      0.0180
  575.0000      0.0178
  576.0000      0.0177
  577.0000      0.0175
  578.0000      0.0175
  579.0000      0.0174
  580.0000      0.0172
  581.0000      0.0171
  582.0000      0.0169
  583.0000      0.0167
  584.0000      0.0166
  585.0000      0.0163
  586.0000      0.0159
  587.0000      0.0155
  588.0000      0.0152
  589.0000      0.0151
  590.0000      0.0150
  591.0000      0.0149
  592.0000      0.0148
  593.0000      0.0147
  594.0000      0.0145
  595.0000      0.0144
  596.0000      0.0143
  597.0000      0.0142
  598.0000      0.0141
  599.0000      0.0140
  600.0000      0.0139
  601.0000      0.0139
  602.0000      0.0138
  603.0000      0.0138
  604.0000      0.0138
  605.0000      0.0138
  606.0000      0.0138
  607.0000      0.0138
  608.0000      0.0137
  609.0000      0.0138
  610.0000      0.0138
  611.0000      0.0138
  612.0000      0.0138
  613.0000      0.0139
  614.0000      0.0138
  615.0000      0.0139
  616.0000      0.0140
  617.0000      0.0141
  618.0000      0.0141
  619.0000      0.0142
  620.0000      0.0141
  621.0000      0.0140
  622.0000      0.0141
  623.0000      0.0142
  624.0000      0.0142
  625.0000      0.0142
  626.0000      0.0142
  627.0000      0.0142
  628.0000      0.0142
  629.0000      0.0142
  630.0000      0.0142
  631.0000      0.0141
  632.0000      0.0142
  633.0000      0.0141
  634.0000      0.0141
  635.0000      0.0141
  636.0000      0.0140
  637.0000      0.0138
  638.0000      0.0138
  639.0000      0.0138
  640.0000      0.0137
  641.0000      0.0136
  642.0000      0.0136
  643.0000      0.0135
  644.0000      0.0134
  645.0000      0.0133
  646.0000      0.0132
  647.0000      0.0130
  648.0000      0.0129
  649.0000      0.0129
  650.0000      0.0127
  651.0000      0.0127
  652.0000      0.0126
  653.0000      0.0125
  654.0000      0.0125
  655.0000      0.0124
  656.0000      0.0124
  657.0000      0.0123
  658.0000      0.0122
  659.0000      0.0122
  660.0000      0.0121
  661.0000      0.0121
  662.0000      0.0120
  663.0000      0.0120
  664.0000      0.0119
  665.0000      0.0119
  666.0000      0.0119
  667.0000      0.0120
  668.0000      0.0120
  669.0000      0.0120
  670.0000      0.0121
  671.0000      0.0121
  672.0000      0.0122
  673.0000      0.0123
  674.0000      0.0123
  675.0000      0.0125
  676.0000      0.0127
  677.0000      0.0127
  678.0000      0.0128
  679.0000      0.0129
  680.0000      0.0129
  681.0000      0.0130
  682.0000      0.0130
  683.0000      0.0129
  684.0000      0.0130
  685.0000      0.0130
  686.0000      0.0129
  687.0000      0.0129
  688.0000      0.0129
  689.0000      0.0129
  690.0000      0.0129
  691.0000      0.0129
  692.0000      0.0128
  693.0000      0.0127
  694.0000      0.0127
  695.0000      0.0125
  696.0000      0.0124
  697.0000      0.0125
  698.0000      0.0124
  699.0000      0.0123
  700.0000      0.0123
  701.0000      0.0121
  702.0000      0.0118
  703.0000      0.0117
  704.0000      0.0115
  705.0000      0.0113
  706.0000      0.0111
  707.0000      0.0108
  708.0000      0.0107
  709.0000      0.0105
  710.0000      0.0103
  711.0000      0.0102
  712.0000      0.0101
  713.0000      0.0101
  714.0000      0.0100
  715.0000      0.0100
  716.0000      0.0098
  717.0000      0.0097
  718.0000      0.0096
  719.0000      0.0096
  720.0000      0.0095
  721.0000      0.0094
  722.0000      0.0093
  723.0000      0.0093
  724.0000      0.0093
  725.0000      0.0092
  726.0000      0.0091
  727.0000      0.0092
  728.0000      0.0092
  729.0000      0.0091
  730.0000      0.0091
  731.0000      0.0090
  732.0000      0.0090
  733.0000      0.0089
  734.0000      0.0089
  735.0000      0.0088
  736.0000      0.0096
  737.0000      0.0095
  738.0000      0.0095
  739.0000      0.0094
  740.0000      0.0094
  741.0000      0.0093
  742.0000      0.0092
  743.0000      0.0093
  744.0000      0.0092
  745.0000      0.0092
  746.0000      0.0092
  747.0000      0.0092
  748.0000      0.0091
  749.0000      0.0091
  750.0000      0.0090
  751.0000      0.0089
  752.0000      0.0089
  753.0000      0.0089
  754.0000      0.0088
  755.0000      0.0088
  756.0000      0.0087
  757.0000      0.0086
  758.0000      0.0086
  759.0000      0.0085
  760.0000      0.0085
  761.0000      0.0084
  762.0000      0.0084
  763.0000      0.0083
  764.0000      0.0082
  765.0000      0.0081
  766.0000      0.0081
  767.0000      0.0080
  768.0000      0.0080
  769.0000      0.0079
  770.0000      0.0078
  771.0000      0.0078
  772.0000      0.0077
  773.0000      0.0077
  774.0000      0.0076
  775.0000      0.0076
  776.0000      0.0076
  777.0000      0.0075
  778.0000      0.0075
  779.0000      0.0075
  780.0000      0.0075
  781.0000      0.0075
  782.0000      0.0074
  783.0000      0.0074
  784.0000      0.0074
  785.0000      0.0073
  786.0000      0.0073
  787.0000      0.0072
  788.0000      0.0072
  789.0000      0.0072
  790.0000      0.0073
  791.0000      0.0072
  792.0000      0.0073
  793.0000      0.0072
  794.0000      0.0072
  795.0000      0.0071
  796.0000      0.0071
  797.0000      0.0071
  798.0000      0.0071
  799.0000      0.0070
  800.0000      0.0069
