Start Wavelength:    200.0000
End Wavelength:    800.0000
Read Mode:  ABS
Read Average:      0.1000
Nanometer Interval:      1.0000
Time:      0.0000

  200.0000      2.5641
  201.0000      2.2520
  202.0000      2.1714
  203.0000      1.9241
  204.0000      1.6798
  205.0000      1.4903
  206.0000      1.3409
  207.0000      1.2032
  208.0000      1.0908
  209.0000      0.9840
  210.0000      0.9019
  211.0000      0.8305
  212.0000      0.7646
  213.0000      0.7080
  214.0000      0.6653
  215.0000      0.6274
  216.0000      0.5963
  217.0000      0.5665
  218.0000      0.5430
  219.0000      0.5239
  220.0000      0.5078
  221.0000      0.4914
  222.0000      0.4782
  223.0000      0.4661
  224.0000      0.4563
  225.0000      0.4457
  226.0000      0.4373
  227.0000      0.4284
  228.0000      0.4211
  229.0000      0.4135
  230.0000      0.4069
  231.0000      0.3999
  232.0000      0.3935
  233.0000      0.3866
  234.0000      0.3809
  235.0000      0.3751
  236.0000      0.3691
  237.0000      0.3635
  238.0000      0.3592
  239.0000      0.3536
  240.0000      0.3495
  241.0000      0.3445
  242.0000      0.3399
  243.0000      0.3361
  244.0000      0.3321
  245.0000      0.3282
  246.0000      0.3248
  247.0000      0.3214
  248.0000      0.3184
  249.0000      0.3151
  250.0000      0.3129
  251.0000      0.3097
  252.0000      0.3065
  253.0000      0.3045
  254.0000      0.3021
  255.0000      0.3001
  256.0000      0.2970
  257.0000      0.2944
  258.0000      0.2921
  259.0000      0.2903
  260.0000      0.2874
  261.0000      0.2845
  262.0000      0.2817
  263.0000      0.2793
  264.0000      0.2769
  265.0000      0.2746
  266.0000      0.2713
  267.0000      0.2688
  268.0000      0.2664
  269.0000      0.2634
  270.0000      0.2597
  271.0000      0.2574
  272.0000      0.2545
  273.0000      0.2522
  274.0000      0.2495
  275.0000      0.2469
  276.0000      0.2435
  277.0000      0.2408
  278.0000      0.2379
  279.0000      0.2355
  280.0000      0.2328
  281.0000      0.2289
  282.0000      0.2262
  283.0000      0.2236
  284.0000      0.2206
  285.0000      0.2174
  286.0000      0.2144
  287.0000      0.2115
  288.0000      0.2084
  289.0000      0.2067
  290.0000      0.2028
  291.0000      0.1994
  292.0000      0.1965
  293.0000      0.1949
  294.0000      0.1912
  295.0000      0.1879
  296.0000      0.1852
  297.0000      0.1832
  298.0000      0.1806
  299.0000      0.1786
  300.0000      0.1754
  301.0000      0.1735
  302.0000      0.1712
  303.0000      0.1681
  304.0000      0.1661
  305.0000      0.1642
  306.0000      0.1619
  307.0000      0.1598
  308.0000      0.1580
  309.0000      0.1561
  310.0000      0.1532
  311.0000      0.1513
  312.0000      0.1497
  313.0000      0.1478
  314.0000      0.1456
  315.0000      0.1435
  316.0000      0.1416
  317.0000      0.1402
  318.0000      0.1387
  319.0000      0.1362
  320.0000      0.1348
  321.0000      0.1347
  322.0000      0.1297
  323.0000      0.1283
  324.0000      0.1273
  325.0000      0.1252
  326.0000      0.1233
  327.0000      0.1220
  328.0000      0.1208
  329.0000      0.1191
  330.0000      0.1177
  331.0000      0.1158
  332.0000      0.1144
  333.0000      0.1130
  334.0000      0.1119
  335.0000      0.1104
  336.0000      0.1094
  337.0000      0.1075
  338.0000      0.1065
  339.0000      0.1051
  340.0000      0.1043
  341.0000      0.1023
  342.0000      0.1011
  343.0000      0.1002
  344.0000      0.0991
  345.0000      0.0974
  346.0000      0.0963
  347.0000      0.0948
  348.0000      0.0943
  349.0000      0.0931
  350.0000      0.0915
  351.0000      0.0905
  352.0000      0.0894
  353.0000      0.0880
  354.0000      0.0871
  355.0000      0.0859
  356.0000      0.0858
  357.0000      0.0854
  358.0000      0.0856
  359.0000      0.0835
  360.0000      0.0818
  361.0000      0.0801
  362.0000      0.0806
  363.0000      0.0798
  364.0000      0.0788
  365.0000      0.0761
  366.0000      0.0769
  367.0000      0.0761
  368.0000      0.0750
  369.0000      0.0728
  370.0000      0.0722
  371.0000      0.0726
  372.0000      0.0710
  373.0000      0.0700
  374.0000      0.0695
  375.0000      0.0690
  376.0000      0.0683
  377.0000      0.0667
  378.0000      0.0671
  379.0000      0.0654
  380.0000      0.0650
  381.0000      0.0644
  382.0000      0.0648
  383.0000      0.0616
  384.0000      0.0626
  385.0000      0.0616
  386.0000      0.0615
  387.0000      0.0600
  388.0000      0.0593
  389.0000      0.0592
  390.0000      0.0586
  391.0000      0.0579
  392.0000      0.0566
  393.0000      0.0563
  394.0000      0.0564
  395.0000      0.0557
  396.0000      0.0543
  397.0000      0.0541
  398.0000      0.0540
  399.0000      0.0536
  400.0000      0.0520
  401.0000      0.0516
  402.0000      0.0517
  403.0000      0.0508
  404.0000      0.0504
  405.0000      0.0500
  406.0000      0.0493
  407.0000      0.0484
  408.0000      0.0482
  409.0000      0.0476
  410.0000      0.0470
  411.0000      0.0470
  412.0000      0.0467
  413.0000      0.0459
  414.0000      0.0452
  415.0000      0.0453
  416.0000      0.0446
  417.0000      0.0441
  418.0000      0.0437
  419.0000      0.0433
  420.0000      0.0429
  421.0000      0.0424
  422.0000      0.0420
  423.0000      0.0416
  424.0000      0.0412
  425.0000      0.0408
  426.0000      0.0404
  427.0000      0.0401
  428.0000      0.0396
  429.0000      0.0863
  430.0000      0.0389
  431.0000      0.0387
  432.0000      0.0383
  433.0000      0.0378
  434.0000      0.0375
  435.0000      0.0372
  436.0000      0.0367
  437.0000      0.0364
  438.0000      0.0361
  439.0000      0.0357
  440.0000      0.0354
  441.0000      0.0351
  442.0000      0.0348
  443.0000      0.0346
  444.0000      0.0342
  445.0000      0.0339
  446.0000      0.0337
  447.0000      0.0334
  448.0000      0.0330
  449.0000      0.0327
  450.0000      0.0325
  451.0000      0.0323
  452.0000      0.0319
  453.0000      0.0317
  454.0000      0.0315
  455.0000      0.0313
  456.0000      0.0311
  457.0000      0.0308
  458.0000      0.0307
  459.0000      0.0304
  460.0000      0.0302
  461.0000      0.0300
  462.0000      0.0298
  463.0000      0.0295
  464.0000      0.0294
  465.0000      0.0292
  466.0000      0.0290
  467.0000      0.0288
  468.0000      0.0287
  469.0000      0.0285
  470.0000      0.0283
  471.0000      0.0282
  472.0000      0.0280
  473.0000      0.0279
  474.0000      0.0277
  475.0000      0.0275
  476.0000      0.0274
  477.0000      0.0273
  478.0000      0.0271
  479.0000      0.0269
  480.0000      0.0268
  481.0000      0.0266
  482.0000      0.0265
  483.0000      0.0263
  484.0000      0.0262
  485.0000      0.0261
  486.0000      0.0260
  487.0000      0.0258
  488.0000      0.0257
  489.0000      0.0256
  490.0000      0.0254
  491.0000      0.0253
  492.0000      0.0252
  493.0000      0.0251
  494.0000      0.0250
  495.0000      0.0249
  496.0000      0.0247
  497.0000      0.0246
  498.0000      0.0245
  499.0000      0.0244
  500.0000      0.0243
  501.0000      0.0241
  502.0000      0.0240
  503.0000      0.0239
  504.0000      0.0237
  505.0000      0.0236
  506.0000      0.0234
  507.0000      0.0232
  508.0000      0.0231
  509.0000      0.0230
  510.0000      0.0228
  511.0000      0.0226
  512.0000      0.0224
  513.0000      0.0224
  514.0000      0.0223
  515.0000      0.0221
  516.0000      0.0220
  517.0000      0.0219
  518.0000      0.0218
  519.0000      0.0217
  520.0000      0.0216
  521.0000      0.0215
  522.0000      0.0213
  523.0000      0.0212
  524.0000      0.0211
  525.0000      0.0209
  526.0000      0.0208
  527.0000      0.0206
  528.0000      0.0203
  529.0000      0.0201
  530.0000      0.0199
  531.0000      0.0197
  532.0000      0.0196
  533.0000      0.0195
  534.0000      0.0194
  535.0000      0.0192
  536.0000      0.0192
  537.0000      0.0191
  538.0000      0.0190
  539.0000      0.0189
  540.0000      0.0188
  541.0000      0.0187
  542.0000      0.0186
  543.0000      0.0185
  544.0000      0.0184
  545.0000      0.0183
  546.0000      0.0183
  547.0000      0.0181
  548.0000      0.0181
  549.0000      0.0180
  550.0000      0.0179
  551.0000      0.0179
  552.0000      0.0179
  553.0000      0.0178
  554.0000      0.0178
  555.0000      0.0177
  556.0000      0.0177
  557.0000      0.0192
  558.0000      0.0191
  559.0000      0.0190
  560.0000      0.0190
  561.0000      0.0190
  562.0000      0.0189
  563.0000      0.0189
  564.0000      0.0188
  565.0000      0.0187
  566.0000      0.0187
  567.0000      0.0185
  568.0000      0.0185
  569.0000      0.0183
  570.0000      0.0183
  571.0000      0.0183
  572.0000      0.0183
  573.0000      0.0182
  574.0000      0.0181
  575.0000      0.0180
  576.0000      0.0179
  577.0000      0.0178
  578.0000      0.0178
  579.0000      0.0177
  580.0000      0.0176
  581.0000      0.0175
  582.0000      0.0173
  583.0000      0.0173
  584.0000      0.0173
  585.0000      0.0173
  586.0000      0.0173
  587.0000      0.0173
  588.0000      0.0172
  589.0000      0.0172
  590.0000      0.0172
  591.0000      0.0171
  592.0000      0.0170
  593.0000      0.0169
  594.0000      0.0168
  595.0000      0.0168
  596.0000      0.0167
  597.0000      0.0167
  598.0000      0.0167
  599.0000      0.0167
  600.0000      0.0167
  601.0000      0.0167
  602.0000      0.0166
  603.0000      0.0166
  604.0000      0.0164
  605.0000      0.0164
  606.0000      0.0162
  607.0000      0.0160
  608.0000      0.0159
  609.0000      0.0159
  610.0000      0.0159
  611.0000      0.0158
  612.0000      0.0156
  613.0000      0.0156
  614.0000      0.0156
  615.0000      0.0157
  616.0000      0.0157
  617.0000      0.0157
  618.0000      0.0157
  619.0000      0.0157
  620.0000      0.0157
  621.0000      0.0157
  622.0000      0.0157
  623.0000      0.0157
  624.0000      0.0157
  625.0000      0.0156
  626.0000      0.0154
  627.0000      0.0153
  628.0000      0.0152
  629.0000      0.0151
  630.0000      0.0149
  631.0000      0.0148
  632.0000      0.0148
  633.0000      0.0148
  634.0000      0.0147
  635.0000      0.0146
  636.0000      0.0146
  637.0000      0.0145
  638.0000      0.0143
  639.0000      0.0142
  640.0000      0.0141
  641.0000      0.0140
  642.0000      0.0139
  643.0000      0.0138
  644.0000      0.0137
  645.0000      0.0137
  646.0000      0.0136
  647.0000      0.0135
  648.0000      0.0135
  649.0000      0.0133
  650.0000      0.0132
  651.0000      0.0132
  652.0000      0.0132
  653.0000      0.0132
  654.0000      0.0132
  655.0000      0.0131
  656.0000      0.0130
  657.0000      0.0129
  658.0000      0.0128
  659.0000      0.0128
  660.0000      0.0127
  661.0000      0.0127
  662.0000      0.0126
  663.0000      0.0126
  664.0000      0.0125
  665.0000      0.0125
  666.0000      0.0125
  667.0000      0.0125
  668.0000      0.0124
  669.0000      0.0124
  670.0000      0.0124
  671.0000      0.0123
  672.0000      0.0123
  673.0000      0.0123
  674.0000      0.0122
  675.0000      0.0122
  676.0000      0.0122
  677.0000      0.0122
  678.0000      0.0121
  679.0000      0.0121
  680.0000      0.0120
  681.0000      0.0119
  682.0000      0.0118
  683.0000      0.0117
  684.0000      0.0117
  685.0000      0.0116
  686.0000      0.0115
  687.0000      0.0115
  688.0000      0.0114
  689.0000      0.0113
  690.0000      0.0112
  691.0000      0.0111
  692.0000      0.0111
  693.0000      0.0110
  694.0000      0.0109
  695.0000      0.0108
  696.0000      0.0108
  697.0000      0.0107
  698.0000      0.0107
  699.0000      0.0107
  700.0000      0.0107
  701.0000      0.0106
  702.0000      0.0106
  703.0000      0.0106
  704.0000      0.0106
  705.0000      0.0105
  706.0000      0.0105
  707.0000      0.0105
  708.0000      0.0105
  709.0000      0.0105
  710.0000      0.0104
  711.0000      0.0104
  712.0000      0.0104
  713.0000      0.0105
  714.0000      0.0105
  715.0000      0.0105
  716.0000      0.0105
  717.0000      0.0105
  718.0000      0.0105
  719.0000      0.0106
  720.0000      0.0106
  721.0000      0.0106
  722.0000      0.0106
  723.0000      0.0107
  724.0000      0.0107
  725.0000      0.0108
  726.0000      0.0107
  727.0000      0.0108
  728.0000      0.0108
  729.0000      0.0107
  730.0000      0.0108
  731.0000      0.0108
  732.0000      0.0108
  733.0000      0.0108
  734.0000      0.0107
  735.0000      0.0108
  736.0000      0.0111
  737.0000      0.0110
  738.0000      0.0109
  739.0000      0.0109
  740.0000      0.0110
  741.0000      0.0108
  742.0000      0.0108
  743.0000      0.0107
  744.0000      0.0107
  745.0000      0.0106
  746.0000      0.0106
  747.0000      0.0106
  748.0000      0.0105
  749.0000      0.0105
  750.0000      0.0104
  751.0000      0.0102
  752.0000      0.0102
  753.0000      0.0102
  754.0000      0.0101
  755.0000      0.0100
  756.0000      0.0099
  757.0000      0.0098
  758.0000      0.0097
  759.0000      0.0096
  760.0000      0.0096
  761.0000      0.0096
  762.0000      0.0096
  763.0000      0.0095
  764.0000      0.0095
  765.0000      0.0093
  766.0000      0.0093
  767.0000      0.0092
  768.0000      0.0092
  769.0000      0.0091
  770.0000      0.0090
  771.0000      0.0090
  772.0000      0.0089
  773.0000      0.0089
  774.0000      0.0088
  775.0000      0.0088
  776.0000      0.0087
  777.0000      0.0086
  778.0000      0.0086
  779.0000      0.0086
  780.0000      0.0085
  781.0000      0.0085
  782.0000      0.0084
  783.0000      0.0085
  784.0000      0.0084
  785.0000      0.0084
  786.0000      0.0084
  787.0000      0.0083
  788.0000      0.0082
  789.0000      0.0082
  790.0000      0.0083
  791.0000      0.0082
  792.0000      0.0081
  793.0000      0.0081
  794.0000      0.0081
  795.0000      0.0080
  796.0000      0.0080
  797.0000      0.0079
  798.0000      0.0079
  799.0000      0.0078
  800.0000      0.0078
