Start Wavelength:    200.0000
End Wavelength:    800.0000
Read Mode:  ABS
Read Average:      0.1000
Nanometer Interval:      1.0000
Time:      0.0000

  200.0000      2.3210
  201.0000      1.9396
  202.0000      1.7700
  203.0000      1.5967
  204.0000      1.4314
  205.0000      1.3295
  206.0000      1.2485
  207.0000      1.1616
  208.0000      1.0946
  209.0000      1.0380
  210.0000      0.9831
  211.0000      0.9367
  212.0000      0.8999
  213.0000      0.8615
  214.0000      0.8297
  215.0000      0.8024
  216.0000      0.7791
  217.0000      0.7573
  218.0000      0.7366
  219.0000      0.7187
  220.0000      0.7043
  221.0000      0.6892
  222.0000      0.6757
  223.0000      0.6619
  224.0000      0.6511
  225.0000      0.6396
  226.0000      0.6287
  227.0000      0.6191
  228.0000      0.6098
  229.0000      0.5993
  230.0000      0.5899
  231.0000      0.5815
  232.0000      0.5727
  233.0000      0.5636
  234.0000      0.5557
  235.0000      0.5488
  236.0000      0.5404
  237.0000      0.5322
  238.0000      0.5255
  239.0000      0.5180
  240.0000      0.5119
  241.0000      0.5042
  242.0000      0.4988
  243.0000      0.4923
  244.0000      0.4864
  245.0000      0.4804
  246.0000      0.4757
  247.0000      0.4707
  248.0000      0.4650
  249.0000      0.4606
  250.0000      0.4567
  251.0000      0.4529
  252.0000      0.4479
  253.0000      0.4445
  254.0000      0.4409
  255.0000      0.4376
  256.0000      0.4332
  257.0000      0.4301
  258.0000      0.4268
  259.0000      0.4227
  260.0000      0.4186
  261.0000      0.4155
  262.0000      0.4109
  263.0000      0.4064
  264.0000      0.4039
  265.0000      0.4000
  266.0000      0.3959
  267.0000      0.3920
  268.0000      0.3881
  269.0000      0.3848
  270.0000      0.3792
  271.0000      0.3760
  272.0000      0.3723
  273.0000      0.3691
  274.0000      0.3645
  275.0000      0.3598
  276.0000      0.3569
  277.0000      0.3522
  278.0000      0.3477
  279.0000      0.3444
  280.0000      0.3405
  281.0000      0.3367
  282.0000      0.3316
  283.0000      0.3271
  284.0000      0.3234
  285.0000      0.3193
  286.0000      0.3150
  287.0000      0.3119
  288.0000      0.3070
  289.0000      0.3025
  290.0000      0.2991
  291.0000      0.2948
  292.0000      0.2903
  293.0000      0.2863
  294.0000      0.2817
  295.0000      0.2772
  296.0000      0.2743
  297.0000      0.2709
  298.0000      0.2674
  299.0000      0.2632
  300.0000      0.2602
  301.0000      0.2576
  302.0000      0.2545
  303.0000      0.2509
  304.0000      0.2491
  305.0000      0.2463
  306.0000      0.2441
  307.0000      0.2411
  308.0000      0.2384
  309.0000      0.2355
  310.0000      0.2324
  311.0000      0.2295
  312.0000      0.2266
  313.0000      0.2253
  314.0000      0.2215
  315.0000      0.2178
  316.0000      0.2157
  317.0000      0.2134
  318.0000      0.2101
  319.0000      0.2079
  320.0000      0.2062
  321.0000      0.2045
  322.0000      0.1955
  323.0000      0.1930
  324.0000      0.1916
  325.0000      0.1883
  326.0000      0.1854
  327.0000      0.1838
  328.0000      0.1808
  329.0000      0.1780
  330.0000      0.1765
  331.0000      0.1736
  332.0000      0.1715
  333.0000      0.1686
  334.0000      0.1670
  335.0000      0.1644
  336.0000      0.1622
  337.0000      0.1606
  338.0000      0.1581
  339.0000      0.1553
  340.0000      0.1541
  341.0000      0.1520
  342.0000      0.1501
  343.0000      0.1482
  344.0000      0.1466
  345.0000      0.1441
  346.0000      0.1426
  347.0000      0.1404
  348.0000      0.1389
  349.0000      0.1371
  350.0000      0.1345
  351.0000      0.1331
  352.0000      0.1315
  353.0000      0.1295
  354.0000      0.1282
  355.0000      0.1267
  356.0000      0.1261
  357.0000      0.1225
  358.0000      0.1233
  359.0000      0.1224
  360.0000      0.1189
  361.0000      0.1181
  362.0000      0.1171
  363.0000      0.1155
  364.0000      0.1133
  365.0000      0.1122
  366.0000      0.1123
  367.0000      0.1098
  368.0000      0.1065
  369.0000      0.1068
  370.0000      0.1060
  371.0000      0.1045
  372.0000      0.1028
  373.0000      0.1008
  374.0000      0.1001
  375.0000      0.0983
  376.0000      0.0982
  377.0000      0.0960
  378.0000      0.0948
  379.0000      0.0931
  380.0000      0.0932
  381.0000      0.0916
  382.0000      0.0903
  383.0000      0.0892
  384.0000      0.0887
  385.0000      0.0871
  386.0000      0.0856
  387.0000      0.0857
  388.0000      0.0842
  389.0000      0.0826
  390.0000      0.0824
  391.0000      0.0818
  392.0000      0.0802
  393.0000      0.0793
  394.0000      0.0791
  395.0000      0.0776
  396.0000      0.0765
  397.0000      0.0760
  398.0000      0.0753
  399.0000      0.0740
  400.0000      0.0725
  401.0000      0.0725
  402.0000      0.0712
  403.0000      0.0699
  404.0000      0.0695
  405.0000      0.0692
  406.0000      0.0677
  407.0000      0.0668
  408.0000      0.0663
  409.0000      0.0655
  410.0000      0.0640
  411.0000      0.0640
  412.0000      0.0631
  413.0000      0.0620
  414.0000      0.0616
  415.0000      0.0617
  416.0000      0.0589
  417.0000      0.0583
  418.0000      0.0576
  419.0000      0.0570
  420.0000      0.0564
  421.0000      0.0557
  422.0000      0.0552
  423.0000      0.0547
  424.0000      0.0540
  425.0000      0.0534
  426.0000      0.0528
  427.0000      0.0524
  428.0000      0.0518
  429.0000      0.0514
  430.0000      0.0510
  431.0000      0.0506
  432.0000      0.0501
  433.0000      0.0496
  434.0000      0.0491
  435.0000      0.0487
  436.0000      0.0481
  437.0000      0.0478
  438.0000      0.0474
  439.0000      0.0470
  440.0000      0.0466
  441.0000      0.0461
  442.0000      0.0458
  443.0000      0.0453
  444.0000      0.0449
  445.0000      0.0444
  446.0000      0.0439
  447.0000      0.0434
  448.0000      0.0428
  449.0000      0.0423
  450.0000      0.0419
  451.0000      0.0413
  452.0000      0.0407
  453.0000      0.0403
  454.0000      0.0398
  455.0000      0.0394
  456.0000      0.0390
  457.0000      0.0387
  458.0000      0.0383
  459.0000      0.0379
  460.0000      0.0375
  461.0000      0.0371
  462.0000      0.0367
  463.0000      0.0364
  464.0000      0.0361
  465.0000      0.0357
  466.0000      0.0355
  467.0000      0.0351
  468.0000      0.0348
  469.0000      0.0346
  470.0000      0.0342
  471.0000      0.0340
  472.0000      0.0336
  473.0000      0.0335
  474.0000      0.0332
  475.0000      0.0329
  476.0000      0.0327
  477.0000      0.0325
  478.0000      0.0323
  479.0000      0.0320
  480.0000      0.0320
  481.0000      0.0320
  482.0000      0.0318
  483.0000      0.0318
  484.0000      0.0316
  485.0000      0.0314
  486.0000      0.0313
  487.0000      0.0312
  488.0000      0.0310
  489.0000      0.0309
  490.0000      0.0308
  491.0000      0.0307
  492.0000      0.0305
  493.0000      0.0304
  494.0000      0.0302
  495.0000      0.0300
  496.0000      0.0297
  497.0000      0.0295
  498.0000      0.0292
  499.0000      0.0289
  500.0000      0.0287
  501.0000      0.0283
  502.0000      0.0280
  503.0000      0.0276
  504.0000      0.0274
  505.0000      0.0273
  506.0000      0.0272
  507.0000      0.0270
  508.0000      0.0267
  509.0000      0.0265
  510.0000      0.0263
  511.0000      0.0261
  512.0000      0.0259
  513.0000      0.0259
  514.0000      0.0258
  515.0000      0.0256
  516.0000      0.0255
  517.0000      0.0255
  518.0000      0.0253
  519.0000      0.0253
  520.0000      0.0253
  521.0000      0.0252
  522.0000      0.0251
  523.0000      0.0250
  524.0000      0.0248
  525.0000      0.0246
  526.0000      0.0245
  527.0000      0.0244
  528.0000      0.0242
  529.0000      0.0241
  530.0000      0.0240
  531.0000      0.0240
  532.0000      0.0239
  533.0000      0.0239
  534.0000      0.0239
  535.0000      0.0238
  536.0000      0.0237
  537.0000      0.0236
  538.0000      0.0234
  539.0000      0.0231
  540.0000      0.0228
  541.0000      0.0224
  542.0000      0.0221
  543.0000      0.0219
  544.0000      0.0217
  545.0000      0.0216
  546.0000      0.0216
  547.0000      0.0215
  548.0000      0.0216
  549.0000      0.0218
  550.0000      0.0219
  551.0000      0.0220
  552.0000      0.0222
  553.0000      0.0224
  554.0000      0.0224
  555.0000      0.0224
  556.0000      0.0225
  557.0000      0.0228
  558.0000      0.0225
  559.0000      0.0221
  560.0000      0.0219
  561.0000      0.0217
  562.0000      0.0216
  563.0000      0.0215
  564.0000      0.0214
  565.0000      0.0214
  566.0000      0.0213
  567.0000      0.0212
  568.0000      0.0210
  569.0000      0.0208
  570.0000      0.0207
  571.0000      0.0205
  572.0000      0.0204
  573.0000      0.0202
  574.0000      0.0200
  575.0000      0.0199
  576.0000      0.0198
  577.0000      0.0196
  578.0000      0.0196
  579.0000      0.0194
  580.0000      0.0192
  581.0000      0.0191
  582.0000      0.0189
  583.0000      0.0188
  584.0000      0.0188
  585.0000      0.0188
  586.0000      0.0188
  587.0000      0.0188
  588.0000      0.0187
  589.0000      0.0187
  590.0000      0.0185
  591.0000      0.0184
  592.0000      0.0183
  593.0000      0.0182
  594.0000      0.0182
  595.0000      0.0181
  596.0000      0.0181
  597.0000      0.0181
  598.0000      0.0180
  599.0000      0.0178
  600.0000      0.0178
  601.0000      0.0177
  602.0000      0.0176
  603.0000      0.0176
  604.0000      0.0176
  605.0000      0.0176
  606.0000      0.0176
  607.0000      0.0173
  608.0000      0.0173
  609.0000      0.0173
  610.0000      0.0174
  611.0000      0.0173
  612.0000      0.0173
  613.0000      0.0172
  614.0000      0.0170
  615.0000      0.0169
  616.0000      0.0167
  617.0000      0.0166
  618.0000      0.0165
  619.0000      0.0165
  620.0000      0.0164
  621.0000      0.0163
  622.0000      0.0162
  623.0000      0.0162
  624.0000      0.0160
  625.0000      0.0159
  626.0000      0.0157
  627.0000      0.0154
  628.0000      0.0152
  629.0000      0.0152
  630.0000      0.0151
  631.0000      0.0150
  632.0000      0.0149
  633.0000      0.0148
  634.0000      0.0147
  635.0000      0.0146
  636.0000      0.0145
  637.0000      0.0144
  638.0000      0.0144
  639.0000      0.0143
  640.0000      0.0142
  641.0000      0.0141
  642.0000      0.0140
  643.0000      0.0139
  644.0000      0.0139
  645.0000      0.0139
  646.0000      0.0139
  647.0000      0.0139
  648.0000      0.0140
  649.0000      0.0140
  650.0000      0.0140
  651.0000      0.0140
  652.0000      0.0140
  653.0000      0.0140
  654.0000      0.0139
  655.0000      0.0140
  656.0000      0.0140
  657.0000      0.0140
  658.0000      0.0140
  659.0000      0.0140
  660.0000      0.0139
  661.0000      0.0139
  662.0000      0.0139
  663.0000      0.0139
  664.0000      0.0138
  665.0000      0.0137
  666.0000      0.0137
  667.0000      0.0136
  668.0000      0.0135
  669.0000      0.0134
  670.0000      0.0134
  671.0000      0.0135
  672.0000      0.0137
  673.0000      0.0137
  674.0000      0.0138
  675.0000      0.0139
  676.0000      0.0139
  677.0000      0.0139
  678.0000      0.0140
  679.0000      0.0140
  680.0000      0.0140
  681.0000      0.0139
  682.0000      0.0138
  683.0000      0.0137
  684.0000      0.0137
  685.0000      0.0136
  686.0000      0.0134
  687.0000      0.0132
  688.0000      0.0131
  689.0000      0.0129
  690.0000      0.0127
  691.0000      0.0126
  692.0000      0.0125
  693.0000      0.0123
  694.0000      0.0122
  695.0000      0.0119
  696.0000      0.0117
  697.0000      0.0115
  698.0000      0.0114
  699.0000      0.0113
  700.0000      0.0112
  701.0000      0.0110
  702.0000      0.0109
  703.0000      0.0107
  704.0000      0.0105
  705.0000      0.0103
  706.0000      0.0101
  707.0000      0.0100
  708.0000      0.0098
  709.0000      0.0097
  710.0000      0.0097
  711.0000      0.0098
  712.0000      0.0098
  713.0000      0.0099
  714.0000      0.0100
  715.0000      0.0101
  716.0000      0.0102
  717.0000      0.0102
  718.0000      0.0103
  719.0000      0.0104
  720.0000      0.0105
  721.0000      0.0105
  722.0000      0.0105
  723.0000      0.0106
  724.0000      0.0105
  725.0000      0.0105
  726.0000      0.0105
  727.0000      0.0105
  728.0000      0.0105
  729.0000      0.0105
  730.0000      0.0105
  731.0000      0.0104
  732.0000      0.0103
  733.0000      0.0103
  734.0000      0.0102
  735.0000      0.0101
  736.0000      0.0099
  737.0000      0.0099
  738.0000      0.0099
  739.0000      0.0099
  740.0000      0.0100
  741.0000      0.0099
  742.0000      0.0100
  743.0000      0.0101
  744.0000      0.0102
  745.0000      0.0103
  746.0000      0.0104
  747.0000      0.0105
  748.0000      0.0106
  749.0000      0.0107
  750.0000      0.0108
  751.0000      0.0108
  752.0000      0.0107
  753.0000      0.0108
  754.0000      0.0107
  755.0000      0.0106
  756.0000      0.0106
  757.0000      0.0105
  758.0000      0.0105
  759.0000      0.0103
  760.0000      0.0102
  761.0000      0.0101
  762.0000      0.0100
  763.0000      0.0098
  764.0000      0.0096
  765.0000      0.0094
  766.0000      0.0093
  767.0000      0.0092
  768.0000      0.0091
  769.0000      0.0090
  770.0000      0.0088
  771.0000      0.0088
  772.0000      0.0088
  773.0000      0.0088
  774.0000      0.0086
  775.0000      0.0086
  776.0000      0.0084
  777.0000      0.0082
  778.0000      0.0082
  779.0000      0.0081
  780.0000      0.0080
  781.0000      0.0079
  782.0000      0.0077
  783.0000      0.0077
  784.0000      0.0076
  785.0000      0.0076
  786.0000      0.0075
  787.0000      0.0075
  788.0000      0.0074
  789.0000      0.0074
  790.0000      0.0076
  791.0000      0.0076
  792.0000      0.0076
  793.0000      0.0076
  794.0000      0.0076
  795.0000      0.0076
  796.0000      0.0076
  797.0000      0.0077
  798.0000      0.0077
  799.0000      0.0077
  800.0000      0.0076
