Start Wavelength:    200.0000
End Wavelength:    800.0000
Read Mode:  ABS
Read Average:      0.1000
Nanometer Interval:      1.0000
Time:      0.0000

  200.0000      2.3210
  201.0000      2.4515
  202.0000      2.1892
  203.0000      2.0032
  204.0000      1.7571
  205.0000      1.5411
  206.0000      1.3842
  207.0000      1.2296
  208.0000      1.0965
  209.0000      0.9652
  210.0000      0.8686
  211.0000      0.7852
  212.0000      0.7159
  213.0000      0.6539
  214.0000      0.6030
  215.0000      0.5625
  216.0000      0.5286
  217.0000      0.4987
  218.0000      0.4759
  219.0000      0.4565
  220.0000      0.4392
  221.0000      0.4236
  222.0000      0.4124
  223.0000      0.4012
  224.0000      0.3915
  225.0000      0.3818
  226.0000      0.3737
  227.0000      0.3663
  228.0000      0.3593
  229.0000      0.3526
  230.0000      0.3456
  231.0000      0.3402
  232.0000      0.3348
  233.0000      0.3285
  234.0000      0.3236
  235.0000      0.3192
  236.0000      0.3136
  237.0000      0.3087
  238.0000      0.3048
  239.0000      0.3004
  240.0000      0.2964
  241.0000      0.2920
  242.0000      0.2887
  243.0000      0.2853
  244.0000      0.2822
  245.0000      0.2792
  246.0000      0.2757
  247.0000      0.2733
  248.0000      0.2704
  249.0000      0.2679
  250.0000      0.2654
  251.0000      0.2634
  252.0000      0.2602
  253.0000      0.2586
  254.0000      0.2567
  255.0000      0.2543
  256.0000      0.2522
  257.0000      0.2502
  258.0000      0.2473
  259.0000      0.2458
  260.0000      0.2437
  261.0000      0.2418
  262.0000      0.2389
  263.0000      0.2363
  264.0000      0.2348
  265.0000      0.2325
  266.0000      0.2303
  267.0000      0.2279
  268.0000      0.2249
  269.0000      0.2230
  270.0000      0.2201
  271.0000      0.2181
  272.0000      0.2154
  273.0000      0.2126
  274.0000      0.2103
  275.0000      0.2079
  276.0000      0.2055
  277.0000      0.2037
  278.0000      0.2002
  279.0000      0.1974
  280.0000      0.1962
  281.0000      0.1932
  282.0000      0.1908
  283.0000      0.1882
  284.0000      0.1850
  285.0000      0.1828
  286.0000      0.1805
  287.0000      0.1779
  288.0000      0.1747
  289.0000      0.1723
  290.0000      0.1701
  291.0000      0.1672
  292.0000      0.1646
  293.0000      0.1629
  294.0000      0.1591
  295.0000      0.1564
  296.0000      0.1551
  297.0000      0.1529
  298.0000      0.1507
  299.0000      0.1483
  300.0000      0.1465
  301.0000      0.1443
  302.0000      0.1423
  303.0000      0.1402
  304.0000      0.1382
  305.0000      0.1363
  306.0000      0.1348
  307.0000      0.1326
  308.0000      0.1315
  309.0000      0.1304
  310.0000      0.1277
  311.0000      0.1263
  312.0000      0.1253
  313.0000      0.1247
  314.0000      0.1220
  315.0000      0.1204
  316.0000      0.1189
  317.0000      0.1179
  318.0000      0.1162
  319.0000      0.1150
  320.0000      0.1133
  321.0000      0.1121
  322.0000      0.1095
  323.0000      0.1078
  324.0000      0.1074
  325.0000      0.1052
  326.0000      0.1036
  327.0000      0.1028
  328.0000      0.1018
  329.0000      0.1005
  330.0000      0.0988
  331.0000      0.0975
  332.0000      0.0971
  333.0000      0.0951
  334.0000      0.0942
  335.0000      0.0927
  336.0000      0.0916
  337.0000      0.0904
  338.0000      0.0893
  339.0000      0.0880
  340.0000      0.0871
  341.0000      0.0858
  342.0000      0.0847
  343.0000      0.0840
  344.0000      0.0832
  345.0000      0.0821
  346.0000      0.0807
  347.0000      0.0795
  348.0000      0.0794
  349.0000      0.0781
  350.0000      0.0769
  351.0000      0.0760
  352.0000      0.0750
  353.0000      0.0738
  354.0000      0.0731
  355.0000      0.0722
  356.0000      0.0715
  357.0000      0.0698
  358.0000      0.0702
  359.0000      0.0689
  360.0000      0.0696
  361.0000      0.0662
  362.0000      0.0653
  363.0000      0.0661
  364.0000      0.0657
  365.0000      0.0637
  366.0000      0.0624
  367.0000      0.0639
  368.0000      0.0612
  369.0000      0.0603
  370.0000      0.0602
  371.0000      0.0600
  372.0000      0.0591
  373.0000      0.0578
  374.0000      0.0595
  375.0000      0.0574
  376.0000      0.0557
  377.0000      0.0559
  378.0000      0.0556
  379.0000      0.0548
  380.0000      0.0543
  381.0000      0.0534
  382.0000      0.0533
  383.0000      0.0518
  384.0000      0.0528
  385.0000      0.0512
  386.0000      0.0506
  387.0000      0.0505
  388.0000      0.0501
  389.0000      0.0497
  390.0000      0.0492
  391.0000      0.0484
  392.0000      0.0477
  393.0000      0.0469
  394.0000      0.0479
  395.0000      0.0467
  396.0000      0.0456
  397.0000      0.0458
  398.0000      0.0458
  399.0000      0.0446
  400.0000      0.0437
  401.0000      0.0437
  402.0000      0.0433
  403.0000      0.0425
  404.0000      0.0424
  405.0000      0.0423
  406.0000      0.0411
  407.0000      0.0406
  408.0000      0.0408
  409.0000      0.0405
  410.0000      0.0395
  411.0000      0.0391
  412.0000      0.0393
  413.0000      0.0387
  414.0000      0.0379
  415.0000      0.0379
  416.0000      0.0368
  417.0000      0.0364
  418.0000      0.0361
  419.0000      0.0357
  420.0000      0.0354
  421.0000      0.0350
  422.0000      0.0347
  423.0000      0.0344
  424.0000      0.0342
  425.0000      0.0339
  426.0000      0.0337
  427.0000      0.0336
  428.0000      0.0332
  429.0000      0.0331
  430.0000      0.0327
  431.0000      0.0325
  432.0000      0.0321
  433.0000      0.0317
  434.0000      0.0314
  435.0000      0.0312
  436.0000      0.0308
  437.0000      0.0306
  438.0000      0.0303
  439.0000      0.0300
  440.0000      0.0298
  441.0000      0.0296
  442.0000      0.0292
  443.0000      0.0290
  444.0000      0.0288
  445.0000      0.0285
  446.0000      0.0283
  447.0000      0.0280
  448.0000      0.0278
  449.0000      0.0276
  450.0000      0.0274
  451.0000      0.0272
  452.0000      0.0268
  453.0000      0.0267
  454.0000      0.0265
  455.0000      0.0264
  456.0000      0.0262
  457.0000      0.0259
  458.0000      0.0259
  459.0000      0.0257
  460.0000      0.0256
  461.0000      0.0255
  462.0000      0.0253
  463.0000      0.0252
  464.0000      0.0251
  465.0000      0.0250
  466.0000      0.0249
  467.0000      0.0247
  468.0000      0.0246
  469.0000      0.0245
  470.0000      0.0244
  471.0000      0.0242
  472.0000      0.0241
  473.0000      0.0240
  474.0000      0.0238
  475.0000      0.0236
  476.0000      0.0234
  477.0000      0.0233
  478.0000      0.0231
  479.0000      0.0229
  480.0000      0.0228
  481.0000      0.0227
  482.0000      0.0225
  483.0000      0.0224
  484.0000      0.0223
  485.0000      0.0221
  486.0000      0.0221
  487.0000      0.0219
  488.0000      0.0218
  489.0000      0.0216
  490.0000      0.0214
  491.0000      0.0213
  492.0000      0.0212
  493.0000      0.0211
  494.0000      0.0210
  495.0000      0.0210
  496.0000      0.0209
  497.0000      0.0208
  498.0000      0.0207
  499.0000      0.0206
  500.0000      0.0205
  501.0000      0.0203
  502.0000      0.0203
  503.0000      0.0202
  504.0000      0.0201
  505.0000      0.0200
  506.0000      0.0200
  507.0000      0.0199
  508.0000      0.0198
  509.0000      0.0198
  510.0000      0.0196
  511.0000      0.0195
  512.0000      0.0194
  513.0000      0.0193
  514.0000      0.0193
  515.0000      0.0191
  516.0000      0.0191
  517.0000      0.0189
  518.0000      0.0187
  519.0000      0.0186
  520.0000      0.0185
  521.0000      0.0184
  522.0000      0.0183
  523.0000      0.0182
  524.0000      0.0182
  525.0000      0.0181
  526.0000      0.0180
  527.0000      0.0180
  528.0000      0.0180
  529.0000      0.0179
  530.0000      0.0178
  531.0000      0.0177
  532.0000      0.0176
  533.0000      0.0175
  534.0000      0.0174
  535.0000      0.0174
  536.0000      0.0173
  537.0000      0.0173
  538.0000      0.0172
  539.0000      0.0172
  540.0000      0.0171
  541.0000      0.0171
  542.0000      0.0170
  543.0000      0.0169
  544.0000      0.0168
  545.0000      0.0168
  546.0000      0.0167
  547.0000      0.0166
  548.0000      0.0166
  549.0000      0.0165
  550.0000      0.0164
  551.0000      0.0163
  552.0000      0.0162
  553.0000      0.0162
  554.0000      0.0161
  555.0000      0.0162
  556.0000      0.0165
  557.0000      0.0167
  558.0000      0.0165
  559.0000      0.0163
  560.0000      0.0160
  561.0000      0.0158
  562.0000      0.0157
  563.0000      0.0155
  564.0000      0.0153
  565.0000      0.0152
  566.0000      0.0151
  567.0000      0.0150
  568.0000      0.0149
  569.0000      0.0148
  570.0000      0.0147
  571.0000      0.0146
  572.0000      0.0145
  573.0000      0.0144
  574.0000      0.0143
  575.0000      0.0143
  576.0000      0.0142
  577.0000      0.0140
  578.0000      0.0140
  579.0000      0.0140
  580.0000      0.0139
  581.0000      0.0139
  582.0000      0.0139
  583.0000      0.0139
  584.0000      0.0139
  585.0000      0.0139
  586.0000      0.0139
  587.0000      0.0138
  588.0000      0.0138
  589.0000      0.0137
  590.0000      0.0137
  591.0000      0.0137
  592.0000      0.0136
  593.0000      0.0136
  594.0000      0.0135
  595.0000      0.0134
  596.0000      0.0134
  597.0000      0.0133
  598.0000      0.0133
  599.0000      0.0132
  600.0000      0.0132
  601.0000      0.0132
  602.0000      0.0131
  603.0000      0.0131
  604.0000      0.0131
  605.0000      0.0131
  606.0000      0.0131
  607.0000      0.0130
  608.0000      0.0130
  609.0000      0.0129
  610.0000      0.0130
  611.0000      0.0129
  612.0000      0.0129
  613.0000      0.0128
  614.0000      0.0128
  615.0000      0.0127
  616.0000      0.0126
  617.0000      0.0126
  618.0000      0.0126
  619.0000      0.0126
  620.0000      0.0126
  621.0000      0.0125
  622.0000      0.0126
  623.0000      0.0125
  624.0000      0.0125
  625.0000      0.0125
  626.0000      0.0125
  627.0000      0.0125
  628.0000      0.0126
  629.0000      0.0126
  630.0000      0.0126
  631.0000      0.0126
  632.0000      0.0126
  633.0000      0.0126
  634.0000      0.0126
  635.0000      0.0127
  636.0000      0.0128
  637.0000      0.0127
  638.0000      0.0128
  639.0000      0.0128
  640.0000      0.0128
  641.0000      0.0128
  642.0000      0.0128
  643.0000      0.0128
  644.0000      0.0128
  645.0000      0.0128
  646.0000      0.0127
  647.0000      0.0127
  648.0000      0.0127
  649.0000      0.0127
  650.0000      0.0126
  651.0000      0.0125
  652.0000      0.0125
  653.0000      0.0124
  654.0000      0.0123
  655.0000      0.0122
  656.0000      0.0122
  657.0000      0.0122
  658.0000      0.0121
  659.0000      0.0120
  660.0000      0.0119
  661.0000      0.0119
  662.0000      0.0118
  663.0000      0.0118
  664.0000      0.0118
  665.0000      0.0118
  666.0000      0.0119
  667.0000      0.0120
  668.0000      0.0120
  669.0000      0.0120
  670.0000      0.0120
  671.0000      0.0120
  672.0000      0.0120
  673.0000      0.0121
  674.0000      0.0120
  675.0000      0.0120
  676.0000      0.0120
  677.0000      0.0120
  678.0000      0.0120
  679.0000      0.0118
  680.0000      0.0118
  681.0000      0.0117
  682.0000      0.0116
  683.0000      0.0115
  684.0000      0.0115
  685.0000      0.0114
  686.0000      0.0112
  687.0000      0.0111
  688.0000      0.0109
  689.0000      0.0108
  690.0000      0.0107
  691.0000      0.0106
  692.0000      0.0105
  693.0000      0.0105
  694.0000      0.0105
  695.0000      0.0105
  696.0000      0.0105
  697.0000      0.0105
  698.0000      0.0105
  699.0000      0.0104
  700.0000      0.0105
  701.0000      0.0105
  702.0000      0.0104
  703.0000      0.0104
  704.0000      0.0105
  705.0000      0.0104
  706.0000      0.0104
  707.0000      0.0103
  708.0000      0.0103
  709.0000      0.0103
  710.0000      0.0103
  711.0000      0.0103
  712.0000      0.0103
  713.0000      0.0103
  714.0000      0.0102
  715.0000      0.0102
  716.0000      0.0101
  717.0000      0.0101
  718.0000      0.0101
  719.0000      0.0101
  720.0000      0.0101
  721.0000      0.0101
  722.0000      0.0100
  723.0000      0.0100
  724.0000      0.0101
  725.0000      0.0100
  726.0000      0.0100
  727.0000      0.0100
  728.0000      0.0100
  729.0000      0.0100
  730.0000      0.0100
  731.0000      0.0100
  732.0000      0.0100
  733.0000      0.0100
  734.0000      0.0099
  735.0000      0.0099
  736.0000      0.0094
  737.0000      0.0094
  738.0000      0.0093
  739.0000      0.0092
  740.0000      0.0093
  741.0000      0.0091
  742.0000      0.0091
  743.0000      0.0091
  744.0000      0.0092
  745.0000      0.0093
  746.0000      0.0094
  747.0000      0.0094
  748.0000      0.0095
  749.0000      0.0095
  750.0000      0.0096
  751.0000      0.0097
  752.0000      0.0097
  753.0000      0.0097
  754.0000      0.0097
  755.0000      0.0098
  756.0000      0.0098
  757.0000      0.0098
  758.0000      0.0098
  759.0000      0.0098
  760.0000      0.0098
  761.0000      0.0098
  762.0000      0.0098
  763.0000      0.0097
  764.0000      0.0096
  765.0000      0.0094
  766.0000      0.0094
  767.0000      0.0094
  768.0000      0.0093
  769.0000      0.0092
  770.0000      0.0091
  771.0000      0.0091
  772.0000      0.0090
  773.0000      0.0091
  774.0000      0.0090
  775.0000      0.0090
  776.0000      0.0090
  777.0000      0.0090
  778.0000      0.0091
  779.0000      0.0092
  780.0000      0.0093
  781.0000      0.0094
  782.0000      0.0094
  783.0000      0.0096
  784.0000      0.0096
  785.0000      0.0097
  786.0000      0.0098
  787.0000      0.0099
  788.0000      0.0100
  789.0000      0.0101
  790.0000      0.0102
  791.0000      0.0104
  792.0000      0.0105
  793.0000      0.0105
  794.0000      0.0105
  795.0000      0.0105
  796.0000      0.0105
  797.0000      0.0105
  798.0000      0.0105
  799.0000      0.0105
  800.0000      0.0104
