Start Wavelength:    200.0000
End Wavelength:    800.0000
Read Mode:  ABS
Read Average:      0.1000
Nanometer Interval:      1.0000
Time:      0.0000

  200.0000      2.5129
  201.0000      2.3546
  202.0000      2.3653
  203.0000      2.0738
  204.0000      1.8240
  205.0000      1.6404
  206.0000      1.4658
  207.0000      1.3068
  208.0000      1.1626
  209.0000      1.0411
  210.0000      0.9403
  211.0000      0.8539
  212.0000      0.7823
  213.0000      0.7128
  214.0000      0.6626
  215.0000      0.6201
  216.0000      0.5841
  217.0000      0.5504
  218.0000      0.5258
  219.0000      0.5039
  220.0000      0.4863
  221.0000      0.4702
  222.0000      0.4565
  223.0000      0.4438
  224.0000      0.4324
  225.0000      0.4220
  226.0000      0.4138
  227.0000      0.4049
  228.0000      0.3975
  229.0000      0.3893
  230.0000      0.3827
  231.0000      0.3769
  232.0000      0.3706
  233.0000      0.3644
  234.0000      0.3585
  235.0000      0.3532
  236.0000      0.3483
  237.0000      0.3429
  238.0000      0.3389
  239.0000      0.3342
  240.0000      0.3298
  241.0000      0.3258
  242.0000      0.3218
  243.0000      0.3186
  244.0000      0.3141
  245.0000      0.3106
  246.0000      0.3079
  247.0000      0.3053
  248.0000      0.3022
  249.0000      0.2994
  250.0000      0.2966
  251.0000      0.2941
  252.0000      0.2915
  253.0000      0.2895
  254.0000      0.2871
  255.0000      0.2852
  256.0000      0.2827
  257.0000      0.2797
  258.0000      0.2776
  259.0000      0.2754
  260.0000      0.2726
  261.0000      0.2706
  262.0000      0.2682
  263.0000      0.2662
  264.0000      0.2638
  265.0000      0.2621
  266.0000      0.2582
  267.0000      0.2562
  268.0000      0.2543
  269.0000      0.2515
  270.0000      0.2477
  271.0000      0.2459
  272.0000      0.2437
  273.0000      0.2413
  274.0000      0.2386
  275.0000      0.2358
  276.0000      0.2329
  277.0000      0.2300
  278.0000      0.2275
  279.0000      0.2248
  280.0000      0.2227
  281.0000      0.2196
  282.0000      0.2165
  283.0000      0.2143
  284.0000      0.2115
  285.0000      0.2080
  286.0000      0.2052
  287.0000      0.2023
  288.0000      0.1996
  289.0000      0.1975
  290.0000      0.1943
  291.0000      0.1913
  292.0000      0.1881
  293.0000      0.1864
  294.0000      0.1832
  295.0000      0.1808
  296.0000      0.1783
  297.0000      0.1756
  298.0000      0.1731
  299.0000      0.1711
  300.0000      0.1688
  301.0000      0.1659
  302.0000      0.1639
  303.0000      0.1611
  304.0000      0.1594
  305.0000      0.1580
  306.0000      0.1556
  307.0000      0.1530
  308.0000      0.1520
  309.0000      0.1496
  310.0000      0.1481
  311.0000      0.1453
  312.0000      0.1435
  313.0000      0.1425
  314.0000      0.1406
  315.0000      0.1394
  316.0000      0.1371
  317.0000      0.1353
  318.0000      0.1342
  319.0000      0.1323
  320.0000      0.1311
  321.0000      0.1303
  322.0000      0.1276
  323.0000      0.1260
  324.0000      0.1248
  325.0000      0.1229
  326.0000      0.1207
  327.0000      0.1199
  328.0000      0.1188
  329.0000      0.1168
  330.0000      0.1156
  331.0000      0.1135
  332.0000      0.1130
  333.0000      0.1114
  334.0000      0.1101
  335.0000      0.1087
  336.0000      0.1076
  337.0000      0.1067
  338.0000      0.1052
  339.0000      0.1045
  340.0000      0.1030
  341.0000      0.1014
  342.0000      0.1005
  343.0000      0.0994
  344.0000      0.0983
  345.0000      0.0968
  346.0000      0.0954
  347.0000      0.0944
  348.0000      0.0940
  349.0000      0.0927
  350.0000      0.0913
  351.0000      0.0903
  352.0000      0.0893
  353.0000      0.0881
  354.0000      0.0874
  355.0000      0.0860
  356.0000      0.0855
  357.0000      0.0849
  358.0000      0.0844
  359.0000      0.0840
  360.0000      0.0811
  361.0000      0.0808
  362.0000      0.0802
  363.0000      0.0793
  364.0000      0.0780
  365.0000      0.0754
  366.0000      0.0763
  367.0000      0.0754
  368.0000      0.0744
  369.0000      0.0724
  370.0000      0.0720
  371.0000      0.0722
  372.0000      0.0713
  373.0000      0.0701
  374.0000      0.0701
  375.0000      0.0685
  376.0000      0.0679
  377.0000      0.0673
  378.0000      0.0670
  379.0000      0.0655
  380.0000      0.0648
  381.0000      0.0644
  382.0000      0.0642
  383.0000      0.0619
  384.0000      0.0623
  385.0000      0.0614
  386.0000      0.0611
  387.0000      0.0604
  388.0000      0.0598
  389.0000      0.0584
  390.0000      0.0584
  391.0000      0.0582
  392.0000      0.0570
  393.0000      0.0560
  394.0000      0.0557
  395.0000      0.0553
  396.0000      0.0545
  397.0000      0.0541
  398.0000      0.0536
  399.0000      0.0524
  400.0000      0.0518
  401.0000      0.0518
  402.0000      0.0511
  403.0000      0.0499
  404.0000      0.0497
  405.0000      0.0498
  406.0000      0.0490
  407.0000      0.0479
  408.0000      0.0476
  409.0000      0.0476
  410.0000      0.0470
  411.0000      0.0467
  412.0000      0.0464
  413.0000      0.0454
  414.0000      0.0450
  415.0000      0.0453
  416.0000      0.0444
  417.0000      0.0440
  418.0000      0.0436
  419.0000      0.0432
  420.0000      0.0429
  421.0000      0.0426
  422.0000      0.0421
  423.0000      0.0418
  424.0000      0.0414
  425.0000      0.0410
  426.0000      0.0406
  427.0000      0.0404
  428.0000      0.0400
  429.0000      0.0396
  430.0000      0.0393
  431.0000      0.0391
  432.0000      0.0387
  433.0000      0.0384
  434.0000      0.0381
  435.0000      0.0379
  436.0000      0.0375
  437.0000      0.0371
  438.0000      0.0369
  439.0000      0.0365
  440.0000      0.0363
  441.0000      0.0359
  442.0000      0.0356
  443.0000      0.0353
  444.0000      0.0351
  445.0000      0.0348
  446.0000      0.0345
  447.0000      0.0342
  448.0000      0.0339
  449.0000      0.0336
  450.0000      0.0333
  451.0000      0.0332
  452.0000      0.0328
  453.0000      0.0326
  454.0000      0.0324
  455.0000      0.0321
  456.0000      0.0319
  457.0000      0.0317
  458.0000      0.0316
  459.0000      0.0313
  460.0000      0.0311
  461.0000      0.0309
  462.0000      0.0308
  463.0000      0.0306
  464.0000      0.0305
  465.0000      0.0304
  466.0000      0.0303
  467.0000      0.0301
  468.0000      0.0300
  469.0000      0.0297
  470.0000      0.0295
  471.0000      0.0293
  472.0000      0.0291
  473.0000      0.0289
  474.0000      0.0287
  475.0000      0.0285
  476.0000      0.0284
  477.0000      0.0282
  478.0000      0.0280
  479.0000      0.0277
  480.0000      0.0276
  481.0000      0.0274
  482.0000      0.0272
  483.0000      0.0270
  484.0000      0.0269
  485.0000      0.0267
  486.0000      0.0266
  487.0000      0.0264
  488.0000      0.0262
  489.0000      0.0261
  490.0000      0.0259
  491.0000      0.0258
  492.0000      0.0256
  493.0000      0.0255
  494.0000      0.0254
  495.0000      0.0252
  496.0000      0.0251
  497.0000      0.0249
  498.0000      0.0248
  499.0000      0.0247
  500.0000      0.0245
  501.0000      0.0244
  502.0000      0.0243
  503.0000      0.0242
  504.0000      0.0241
  505.0000      0.0239
  506.0000      0.0238
  507.0000      0.0237
  508.0000      0.0235
  509.0000      0.0234
  510.0000      0.0233
  511.0000      0.0232
  512.0000      0.0230
  513.0000      0.0229
  514.0000      0.0228
  515.0000      0.0227
  516.0000      0.0225
  517.0000      0.0224
  518.0000      0.0223
  519.0000      0.0222
  520.0000      0.0222
  521.0000      0.0220
  522.0000      0.0219
  523.0000      0.0218
  524.0000      0.0217
  525.0000      0.0216
  526.0000      0.0215
  527.0000      0.0214
  528.0000      0.0213
  529.0000      0.0212
  530.0000      0.0211
  531.0000      0.0210
  532.0000      0.0209
  533.0000      0.0208
  534.0000      0.0207
  535.0000      0.0206
  536.0000      0.0205
  537.0000      0.0204
  538.0000      0.0203
  539.0000      0.0201
  540.0000      0.0200
  541.0000      0.0200
  542.0000      0.0199
  543.0000      0.0197
  544.0000      0.0196
  545.0000      0.0196
  546.0000      0.0195
  547.0000      0.0194
  548.0000      0.0194
  549.0000      0.0193
  550.0000      0.0192
  551.0000      0.0191
  552.0000      0.0190
  553.0000      0.0189
  554.0000      0.0188
  555.0000      0.0188
  556.0000      0.0187
  557.0000      0.0190
  558.0000      0.0189
  559.0000      0.0188
  560.0000      0.0187
  561.0000      0.0186
  562.0000      0.0186
  563.0000      0.0184
  564.0000      0.0183
  565.0000      0.0183
  566.0000      0.0181
  567.0000      0.0180
  568.0000      0.0179
  569.0000      0.0179
  570.0000      0.0178
  571.0000      0.0177
  572.0000      0.0176
  573.0000      0.0176
  574.0000      0.0175
  575.0000      0.0175
  576.0000      0.0174
  577.0000      0.0173
  578.0000      0.0172
  579.0000      0.0172
  580.0000      0.0171
  581.0000      0.0171
  582.0000      0.0170
  583.0000      0.0169
  584.0000      0.0169
  585.0000      0.0169
  586.0000      0.0168
  587.0000      0.0167
  588.0000      0.0166
  589.0000      0.0166
  590.0000      0.0165
  591.0000      0.0165
  592.0000      0.0164
  593.0000      0.0164
  594.0000      0.0163
  595.0000      0.0163
  596.0000      0.0162
  597.0000      0.0161
  598.0000      0.0160
  599.0000      0.0159
  600.0000      0.0159
  601.0000      0.0159
  602.0000      0.0158
  603.0000      0.0158
  604.0000      0.0157
  605.0000      0.0157
  606.0000      0.0157
  607.0000      0.0156
  608.0000      0.0155
  609.0000      0.0155
  610.0000      0.0155
  611.0000      0.0154
  612.0000      0.0153
  613.0000      0.0153
  614.0000      0.0152
  615.0000      0.0151
  616.0000      0.0150
  617.0000      0.0150
  618.0000      0.0150
  619.0000      0.0149
  620.0000      0.0149
  621.0000      0.0148
  622.0000      0.0147
  623.0000      0.0147
  624.0000      0.0146
  625.0000      0.0145
  626.0000      0.0144
  627.0000      0.0143
  628.0000      0.0143
  629.0000      0.0142
  630.0000      0.0141
  631.0000      0.0140
  632.0000      0.0140
  633.0000      0.0139
  634.0000      0.0139
  635.0000      0.0138
  636.0000      0.0138
  637.0000      0.0137
  638.0000      0.0137
  639.0000      0.0136
  640.0000      0.0135
  641.0000      0.0134
  642.0000      0.0133
  643.0000      0.0133
  644.0000      0.0132
  645.0000      0.0132
  646.0000      0.0131
  647.0000      0.0130
  648.0000      0.0129
  649.0000      0.0129
  650.0000      0.0128
  651.0000      0.0128
  652.0000      0.0127
  653.0000      0.0127
  654.0000      0.0127
  655.0000      0.0127
  656.0000      0.0127
  657.0000      0.0126
  658.0000      0.0126
  659.0000      0.0125
  660.0000      0.0125
  661.0000      0.0124
  662.0000      0.0124
  663.0000      0.0124
  664.0000      0.0123
  665.0000      0.0123
  666.0000      0.0123
  667.0000      0.0122
  668.0000      0.0122
  669.0000      0.0122
  670.0000      0.0122
  671.0000      0.0121
  672.0000      0.0121
  673.0000      0.0120
  674.0000      0.0120
  675.0000      0.0120
  676.0000      0.0119
  677.0000      0.0119
  678.0000      0.0119
  679.0000      0.0118
  680.0000      0.0118
  681.0000      0.0118
  682.0000      0.0118
  683.0000      0.0117
  684.0000      0.0118
  685.0000      0.0117
  686.0000      0.0117
  687.0000      0.0117
  688.0000      0.0117
  689.0000      0.0117
  690.0000      0.0117
  691.0000      0.0117
  692.0000      0.0117
  693.0000      0.0117
  694.0000      0.0117
  695.0000      0.0117
  696.0000      0.0117
  697.0000      0.0117
  698.0000      0.0117
  699.0000      0.0117
  700.0000      0.0117
  701.0000      0.0117
  702.0000      0.0117
  703.0000      0.0117
  704.0000      0.0117
  705.0000      0.0116
  706.0000      0.0116
  707.0000      0.0115
  708.0000      0.0115
  709.0000      0.0115
  710.0000      0.0114
  711.0000      0.0115
  712.0000      0.0114
  713.0000      0.0115
  714.0000      0.0115
  715.0000      0.0114
  716.0000      0.0114
  717.0000      0.0113
  718.0000      0.0113
  719.0000      0.0113
  720.0000      0.0112
  721.0000      0.0112
  722.0000      0.0111
  723.0000      0.0112
  724.0000      0.0111
  725.0000      0.0111
  726.0000      0.0111
  727.0000      0.0111
  728.0000      0.0111
  729.0000      0.0111
  730.0000      0.0111
  731.0000      0.0111
  732.0000      0.0111
  733.0000      0.0111
  734.0000      0.0111
  735.0000      0.0112
  736.0000      0.0114
  737.0000      0.0114
  738.0000      0.0113
  739.0000      0.0112
  740.0000      0.0112
  741.0000      0.0111
  742.0000      0.0111
  743.0000      0.0111
  744.0000      0.0111
  745.0000      0.0111
  746.0000      0.0110
  747.0000      0.0110
  748.0000      0.0109
  749.0000      0.0109
  750.0000      0.0108
  751.0000      0.0108
  752.0000      0.0107
  753.0000      0.0107
  754.0000      0.0107
  755.0000      0.0107
  756.0000      0.0107
  757.0000      0.0106
  758.0000      0.0106
  759.0000      0.0106
  760.0000      0.0106
  761.0000      0.0105
  762.0000      0.0105
  763.0000      0.0105
  764.0000      0.0105
  765.0000      0.0104
  766.0000      0.0103
  767.0000      0.0103
  768.0000      0.0102
  769.0000      0.0102
  770.0000      0.0101
  771.0000      0.0100
  772.0000      0.0100
  773.0000      0.0100
  774.0000      0.0099
  775.0000      0.0099
  776.0000      0.0099
  777.0000      0.0098
  778.0000      0.0098
  779.0000      0.0098
  780.0000      0.0098
  781.0000      0.0098
  782.0000      0.0096
  783.0000      0.0097
  784.0000      0.0096
  785.0000      0.0095
  786.0000      0.0095
  787.0000      0.0094
  788.0000      0.0094
  789.0000      0.0094
  790.0000      0.0094
  791.0000      0.0093
  792.0000      0.0093
  793.0000      0.0092
  794.0000      0.0092
  795.0000      0.0092
  796.0000      0.0092
  797.0000      0.0092
  798.0000      0.0092
  799.0000      0.0092
  800.0000      0.0091
