Start Wavelength:    200.0000
End Wavelength:    800.0000
Read Mode:  ABS
Read Average:      0.1000
Nanometer Interval:      1.0000
Time:      0.0000

  200.0000      1.4804
  201.0000      1.3575
  202.0000      1.3214
  203.0000      1.2769
  204.0000      1.2370
  205.0000      1.2094
  206.0000      1.1787
  207.0000      1.1536
  208.0000      1.1217
  209.0000      1.0943
  210.0000      1.0734
  211.0000      1.0499
  212.0000      1.0254
  213.0000      1.0024
  214.0000      0.9836
  215.0000      0.9638
  216.0000      0.9475
  217.0000      0.9252
  218.0000      0.9115
  219.0000      0.8957
  220.0000      0.8823
  221.0000      0.8659
  222.0000      0.8509
  223.0000      0.8401
  224.0000      0.8271
  225.0000      0.8137
  226.0000      0.8009
  227.0000      0.7903
  228.0000      0.7804
  229.0000      0.7687
  230.0000      0.7563
  231.0000      0.7454
  232.0000      0.7369
  233.0000      0.7255
  234.0000      0.7142
  235.0000      0.7042
  236.0000      0.6951
  237.0000      0.6854
  238.0000      0.6754
  239.0000      0.6661
  240.0000      0.6581
  241.0000      0.6484
  242.0000      0.6398
  243.0000      0.6319
  244.0000      0.6249
  245.0000      0.6167
  246.0000      0.6098
  247.0000      0.6035
  248.0000      0.5967
  249.0000      0.5909
  250.0000      0.5851
  251.0000      0.5800
  252.0000      0.5737
  253.0000      0.5699
  254.0000      0.5648
  255.0000      0.5602
  256.0000      0.5542
  257.0000      0.5502
  258.0000      0.5455
  259.0000      0.5417
  260.0000      0.5354
  261.0000      0.5311
  262.0000      0.5265
  263.0000      0.5220
  264.0000      0.5165
  265.0000      0.5116
  266.0000      0.5069
  267.0000      0.5018
  268.0000      0.4965
  269.0000      0.4908
  270.0000      0.4859
  271.0000      0.4816
  272.0000      0.4764
  273.0000      0.4716
  274.0000      0.4663
  275.0000      0.4627
  276.0000      0.4567
  277.0000      0.4521
  278.0000      0.4464
  279.0000      0.4415
  280.0000      0.4380
  281.0000      0.4313
  282.0000      0.4255
  283.0000      0.4214
  284.0000      0.4165
  285.0000      0.4106
  286.0000      0.4044
  287.0000      0.3997
  288.0000      0.3943
  289.0000      0.3892
  290.0000      0.3838
  291.0000      0.3783
  292.0000      0.3729
  293.0000      0.3685
  294.0000      0.3627
  295.0000      0.3585
  296.0000      0.3536
  297.0000      0.3497
  298.0000      0.3438
  299.0000      0.3394
  300.0000      0.3355
  301.0000      0.3313
  302.0000      0.3260
  303.0000      0.3212
  304.0000      0.3178
  305.0000      0.3144
  306.0000      0.3108
  307.0000      0.3050
  308.0000      0.3017
  309.0000      0.2987
  310.0000      0.2951
  311.0000      0.2900
  312.0000      0.2869
  313.0000      0.2837
  314.0000      0.2798
  315.0000      0.2763
  316.0000      0.2724
  317.0000      0.2696
  318.0000      0.2668
  319.0000      0.2623
  320.0000      0.2594
  321.0000      0.2583
  322.0000      0.2514
  323.0000      0.2484
  324.0000      0.2450
  325.0000      0.2419
  326.0000      0.2383
  327.0000      0.2357
  328.0000      0.2326
  329.0000      0.2289
  330.0000      0.2264
  331.0000      0.2234
  332.0000      0.2205
  333.0000      0.2172
  334.0000      0.2150
  335.0000      0.2122
  336.0000      0.2091
  337.0000      0.2060
  338.0000      0.2037
  339.0000      0.2008
  340.0000      0.1984
  341.0000      0.1949
  342.0000      0.1925
  343.0000      0.1907
  344.0000      0.1874
  345.0000      0.1845
  346.0000      0.1823
  347.0000      0.1796
  348.0000      0.1777
  349.0000      0.1750
  350.0000      0.1725
  351.0000      0.1699
  352.0000      0.1680
  353.0000      0.1649
  354.0000      0.1630
  355.0000      0.1611
  356.0000      0.1603
  357.0000      0.1570
  358.0000      0.1562
  359.0000      0.1542
  360.0000      0.1519
  361.0000      0.1494
  362.0000      0.1479
  363.0000      0.1450
  364.0000      0.1427
  365.0000      0.1413
  366.0000      0.1390
  367.0000      0.1379
  368.0000      0.1351
  369.0000      0.1335
  370.0000      0.1316
  371.0000      0.1294
  372.0000      0.1278
  373.0000      0.1260
  374.0000      0.1247
  375.0000      0.1226
  376.0000      0.1205
  377.0000      0.1191
  378.0000      0.1183
  379.0000      0.1152
  380.0000      0.1142
  381.0000      0.1129
  382.0000      0.1115
  383.0000      0.1083
  384.0000      0.1087
  385.0000      0.1074
  386.0000      0.1054
  387.0000      0.1032
  388.0000      0.1031
  389.0000      0.1011
  390.0000      0.0994
  391.0000      0.0985
  392.0000      0.0973
  393.0000      0.0957
  394.0000      0.0950
  395.0000      0.0929
  396.0000      0.0919
  397.0000      0.0911
  398.0000      0.0898
  399.0000      0.0882
  400.0000      0.0869
  401.0000      0.0865
  402.0000      0.0850
  403.0000      0.0835
  404.0000      0.0828
  405.0000      0.0820
  406.0000      0.0810
  407.0000      0.0790
  408.0000      0.0787
  409.0000      0.0778
  410.0000      0.0765
  411.0000      0.0756
  412.0000      0.0748
  413.0000      0.0742
  414.0000      0.0728
  415.0000      0.0726
  416.0000      0.0710
  417.0000      0.0703
  418.0000      0.0695
  419.0000      0.0686
  420.0000      0.0679
  421.0000      0.0670
  422.0000      0.0663
  423.0000      0.0654
  424.0000      0.0646
  425.0000      0.0639
  426.0000      0.0631
  427.0000      0.0625
  428.0000      0.0617
  429.0000      0.0611
  430.0000      0.0603
  431.0000      0.0597
  432.0000      0.0590
  433.0000      0.0584
  434.0000      0.0577
  435.0000      0.0573
  436.0000      0.0567
  437.0000      0.0561
  438.0000      0.0556
  439.0000      0.0549
  440.0000      0.0544
  441.0000      0.0539
  442.0000      0.0533
  443.0000      0.0528
  444.0000      0.0523
  445.0000      0.0517
  446.0000      0.0511
  447.0000      0.0507
  448.0000      0.0501
  449.0000      0.0497
  450.0000      0.0491
  451.0000      0.0487
  452.0000      0.0481
  453.0000      0.0477
  454.0000      0.0472
  455.0000      0.0469
  456.0000      0.0464
  457.0000      0.0459
  458.0000      0.0456
  459.0000      0.0452
  460.0000      0.0447
  461.0000      0.0443
  462.0000      0.0440
  463.0000      0.0436
  464.0000      0.0432
  465.0000      0.0429
  466.0000      0.0425
  467.0000      0.0421
  468.0000      0.0417
  469.0000      0.0414
  470.0000      0.0410
  471.0000      0.0407
  472.0000      0.0402
  473.0000      0.0399
  474.0000      0.0395
  475.0000      0.0392
  476.0000      0.0388
  477.0000      0.0386
  478.0000      0.0382
  479.0000      0.0379
  480.0000      0.0375
  481.0000      0.0372
  482.0000      0.0369
  483.0000      0.0366
  484.0000      0.0363
  485.0000      0.0360
  486.0000      0.0357
  487.0000      0.0354
  488.0000      0.0351
  489.0000      0.0348
  490.0000      0.0345
  491.0000      0.0342
  492.0000      0.0339
  493.0000      0.0336
  494.0000      0.0333
  495.0000      0.0330
  496.0000      0.0328
  497.0000      0.0325
  498.0000      0.0323
  499.0000      0.0320
  500.0000      0.0318
  501.0000      0.0315
  502.0000      0.0314
  503.0000      0.0311
  504.0000      0.0308
  505.0000      0.0306
  506.0000      0.0304
  507.0000      0.0301
  508.0000      0.0299
  509.0000      0.0297
  510.0000      0.0295
  511.0000      0.0293
  512.0000      0.0291
  513.0000      0.0290
  514.0000      0.0288
  515.0000      0.0286
  516.0000      0.0285
  517.0000      0.0282
  518.0000      0.0280
  519.0000      0.0279
  520.0000      0.0277
  521.0000      0.0275
  522.0000      0.0274
  523.0000      0.0272
  524.0000      0.0271
  525.0000      0.0269
  526.0000      0.0268
  527.0000      0.0266
  528.0000      0.0264
  529.0000      0.0262
  530.0000      0.0260
  531.0000      0.0259
  532.0000      0.0257
  533.0000      0.0255
  534.0000      0.0254
  535.0000      0.0252
  536.0000      0.0251
  537.0000      0.0250
  538.0000      0.0248
  539.0000      0.0247
  540.0000      0.0245
  541.0000      0.0244
  542.0000      0.0242
  543.0000      0.0241
  544.0000      0.0239
  545.0000      0.0238
  546.0000      0.0237
  547.0000      0.0235
  548.0000      0.0234
  549.0000      0.0233
  550.0000      0.0231
  551.0000      0.0230
  552.0000      0.0228
  553.0000      0.0227
  554.0000      0.0225
  555.0000      0.0225
  556.0000      0.0224
  557.0000      0.0250
  558.0000      0.0249
  559.0000      0.0247
  560.0000      0.0246
  561.0000      0.0245
  562.0000      0.0243
  563.0000      0.0242
  564.0000      0.0241
  565.0000      0.0239
  566.0000      0.0238
  567.0000      0.0236
  568.0000      0.0235
  569.0000      0.0234
  570.0000      0.0232
  571.0000      0.0231
  572.0000      0.0230
  573.0000      0.0228
  574.0000      0.0227
  575.0000      0.0225
  576.0000      0.0223
  577.0000      0.0222
  578.0000      0.0220
  579.0000      0.0216
  580.0000      0.0212
  581.0000      0.0208
  582.0000      0.0205
  583.0000      0.0202
  584.0000      0.0201
  585.0000      0.0199
  586.0000      0.0198
  587.0000      0.0197
  588.0000      0.0195
  589.0000      0.0195
  590.0000      0.0193
  591.0000      0.0192
  592.0000      0.0190
  593.0000      0.0189
  594.0000      0.0187
  595.0000      0.0186
  596.0000      0.0184
  597.0000      0.0183
  598.0000      0.0182
  599.0000      0.0181
  600.0000      0.0180
  601.0000      0.0179
  602.0000      0.0178
  603.0000      0.0177
  604.0000      0.0176
  605.0000      0.0176
  606.0000      0.0175
  607.0000      0.0174
  608.0000      0.0172
  609.0000      0.0172
  610.0000      0.0171
  611.0000      0.0170
  612.0000      0.0169
  613.0000      0.0167
  614.0000      0.0166
  615.0000      0.0165
  616.0000      0.0164
  617.0000      0.0163
  618.0000      0.0162
  619.0000      0.0161
  620.0000      0.0160
  621.0000      0.0159
  622.0000      0.0159
  623.0000      0.0158
  624.0000      0.0157
  625.0000      0.0157
  626.0000      0.0156
  627.0000      0.0155
  628.0000      0.0155
  629.0000      0.0154
  630.0000      0.0154
  631.0000      0.0153
  632.0000      0.0153
  633.0000      0.0153
  634.0000      0.0152
  635.0000      0.0152
  636.0000      0.0151
  637.0000      0.0150
  638.0000      0.0150
  639.0000      0.0149
  640.0000      0.0148
  641.0000      0.0148
  642.0000      0.0147
  643.0000      0.0146
  644.0000      0.0146
  645.0000      0.0146
  646.0000      0.0145
  647.0000      0.0144
  648.0000      0.0143
  649.0000      0.0143
  650.0000      0.0142
  651.0000      0.0142
  652.0000      0.0142
  653.0000      0.0141
  654.0000      0.0141
  655.0000      0.0140
  656.0000      0.0139
  657.0000      0.0139
  658.0000      0.0138
  659.0000      0.0138
  660.0000      0.0137
  661.0000      0.0137
  662.0000      0.0136
  663.0000      0.0135
  664.0000      0.0135
  665.0000      0.0134
  666.0000      0.0133
  667.0000      0.0133
  668.0000      0.0132
  669.0000      0.0131
  670.0000      0.0131
  671.0000      0.0131
  672.0000      0.0130
  673.0000      0.0130
  674.0000      0.0129
  675.0000      0.0129
  676.0000      0.0128
  677.0000      0.0127
  678.0000      0.0127
  679.0000      0.0126
  680.0000      0.0125
  681.0000      0.0125
  682.0000      0.0123
  683.0000      0.0122
  684.0000      0.0122
  685.0000      0.0121
  686.0000      0.0121
  687.0000      0.0120
  688.0000      0.0119
  689.0000      0.0118
  690.0000      0.0118
  691.0000      0.0117
  692.0000      0.0117
  693.0000      0.0116
  694.0000      0.0116
  695.0000      0.0116
  696.0000      0.0115
  697.0000      0.0115
  698.0000      0.0115
  699.0000      0.0115
  700.0000      0.0115
  701.0000      0.0115
  702.0000      0.0115
  703.0000      0.0114
  704.0000      0.0114
  705.0000      0.0114
  706.0000      0.0113
  707.0000      0.0112
  708.0000      0.0112
  709.0000      0.0111
  710.0000      0.0111
  711.0000      0.0110
  712.0000      0.0109
  713.0000      0.0109
  714.0000      0.0108
  715.0000      0.0107
  716.0000      0.0107
  717.0000      0.0106
  718.0000      0.0105
  719.0000      0.0104
  720.0000      0.0104
  721.0000      0.0103
  722.0000      0.0103
  723.0000      0.0103
  724.0000      0.0103
  725.0000      0.0103
  726.0000      0.0103
  727.0000      0.0103
  728.0000      0.0102
  729.0000      0.0101
  730.0000      0.0101
  731.0000      0.0101
  732.0000      0.0101
  733.0000      0.0101
  734.0000      0.0100
  735.0000      0.0099
  736.0000      0.0095
  737.0000      0.0094
  738.0000      0.0093
  739.0000      0.0092
  740.0000      0.0092
  741.0000      0.0091
  742.0000      0.0091
  743.0000      0.0090
  744.0000      0.0090
  745.0000      0.0090
  746.0000      0.0090
  747.0000      0.0090
  748.0000      0.0090
  749.0000      0.0091
  750.0000      0.0091
  751.0000      0.0091
  752.0000      0.0091
  753.0000      0.0091
  754.0000      0.0091
  755.0000      0.0091
  756.0000      0.0091
  757.0000      0.0091
  758.0000      0.0091
  759.0000      0.0091
  760.0000      0.0091
  761.0000      0.0091
  762.0000      0.0091
  763.0000      0.0090
  764.0000      0.0089
  765.0000      0.0088
  766.0000      0.0088
  767.0000      0.0088
  768.0000      0.0088
  769.0000      0.0087
  770.0000      0.0086
  771.0000      0.0086
  772.0000      0.0085
  773.0000      0.0085
  774.0000      0.0085
  775.0000      0.0084
  776.0000      0.0083
  777.0000      0.0082
  778.0000      0.0082
  779.0000      0.0082
  780.0000      0.0081
  781.0000      0.0082
  782.0000      0.0080
  783.0000      0.0080
  784.0000      0.0080
  785.0000      0.0079
  786.0000      0.0078
  787.0000      0.0077
  788.0000      0.0076
  789.0000      0.0075
  790.0000      0.0075
  791.0000      0.0075
  792.0000      0.0074
  793.0000      0.0074
  794.0000      0.0073
  795.0000      0.0073
  796.0000      0.0072
  797.0000      0.0072
  798.0000      0.0071
  799.0000      0.0070
  800.0000      0.0070
