Start Wavelength:    200.0000
End Wavelength:    800.0000
Read Mode:  ABS
Read Average:      0.1000
Nanometer Interval:      1.0000
Time:      0.0000

  200.0000      2.3210
  201.0000      2.1883
  202.0000      2.0379
  203.0000      1.7728
  204.0000      1.5943
  205.0000      1.4013
  206.0000      1.2702
  207.0000      1.1513
  208.0000      1.0440
  209.0000      0.9453
  210.0000      0.8651
  211.0000      0.7984
  212.0000      0.7428
  213.0000      0.6902
  214.0000      0.6484
  215.0000      0.6155
  216.0000      0.5868
  217.0000      0.5590
  218.0000      0.5380
  219.0000      0.5201
  220.0000      0.5052
  221.0000      0.4901
  222.0000      0.4768
  223.0000      0.4661
  224.0000      0.4556
  225.0000      0.4461
  226.0000      0.4368
  227.0000      0.4289
  228.0000      0.4211
  229.0000      0.4131
  230.0000      0.4060
  231.0000      0.3995
  232.0000      0.3932
  233.0000      0.3868
  234.0000      0.3803
  235.0000      0.3752
  236.0000      0.3695
  237.0000      0.3640
  238.0000      0.3587
  239.0000      0.3536
  240.0000      0.3494
  241.0000      0.3444
  242.0000      0.3401
  243.0000      0.3358
  244.0000      0.3322
  245.0000      0.3286
  246.0000      0.3249
  247.0000      0.3218
  248.0000      0.3190
  249.0000      0.3161
  250.0000      0.3129
  251.0000      0.3100
  252.0000      0.3074
  253.0000      0.3048
  254.0000      0.3023
  255.0000      0.2998
  256.0000      0.2972
  257.0000      0.2951
  258.0000      0.2920
  259.0000      0.2897
  260.0000      0.2880
  261.0000      0.2851
  262.0000      0.2826
  263.0000      0.2798
  264.0000      0.2775
  265.0000      0.2754
  266.0000      0.2721
  267.0000      0.2694
  268.0000      0.2673
  269.0000      0.2644
  270.0000      0.2609
  271.0000      0.2579
  272.0000      0.2555
  273.0000      0.2526
  274.0000      0.2489
  275.0000      0.2468
  276.0000      0.2442
  277.0000      0.2418
  278.0000      0.2382
  279.0000      0.2353
  280.0000      0.2334
  281.0000      0.2301
  282.0000      0.2271
  283.0000      0.2247
  284.0000      0.2216
  285.0000      0.2189
  286.0000      0.2152
  287.0000      0.2125
  288.0000      0.2098
  289.0000      0.2072
  290.0000      0.2037
  291.0000      0.2008
  292.0000      0.1978
  293.0000      0.1956
  294.0000      0.1920
  295.0000      0.1885
  296.0000      0.1870
  297.0000      0.1847
  298.0000      0.1815
  299.0000      0.1786
  300.0000      0.1771
  301.0000      0.1745
  302.0000      0.1720
  303.0000      0.1693
  304.0000      0.1676
  305.0000      0.1655
  306.0000      0.1629
  307.0000      0.1608
  308.0000      0.1590
  309.0000      0.1576
  310.0000      0.1550
  311.0000      0.1524
  312.0000      0.1506
  313.0000      0.1499
  314.0000      0.1469
  315.0000      0.1450
  316.0000      0.1433
  317.0000      0.1422
  318.0000      0.1400
  319.0000      0.1378
  320.0000      0.1365
  321.0000      0.1364
  322.0000      0.1328
  323.0000      0.1316
  324.0000      0.1306
  325.0000      0.1286
  326.0000      0.1262
  327.0000      0.1255
  328.0000      0.1240
  329.0000      0.1222
  330.0000      0.1207
  331.0000      0.1193
  332.0000      0.1182
  333.0000      0.1159
  334.0000      0.1147
  335.0000      0.1134
  336.0000      0.1124
  337.0000      0.1111
  338.0000      0.1095
  339.0000      0.1079
  340.0000      0.1072
  341.0000      0.1056
  342.0000      0.1037
  343.0000      0.1031
  344.0000      0.1020
  345.0000      0.1003
  346.0000      0.0993
  347.0000      0.0980
  348.0000      0.0974
  349.0000      0.0961
  350.0000      0.0948
  351.0000      0.0937
  352.0000      0.0929
  353.0000      0.0912
  354.0000      0.0902
  355.0000      0.0895
  356.0000      0.0887
  357.0000      0.0866
  358.0000      0.0861
  359.0000      0.0845
  360.0000      0.0841
  361.0000      0.0826
  362.0000      0.0815
  363.0000      0.0802
  364.0000      0.0812
  365.0000      0.0791
  366.0000      0.0775
  367.0000      0.0777
  368.0000      0.0763
  369.0000      0.0750
  370.0000      0.0736
  371.0000      0.0738
  372.0000      0.0735
  373.0000      0.0716
  374.0000      0.0725
  375.0000      0.0711
  376.0000      0.0707
  377.0000      0.0690
  378.0000      0.0686
  379.0000      0.0674
  380.0000      0.0678
  381.0000      0.0664
  382.0000      0.0658
  383.0000      0.0643
  384.0000      0.0647
  385.0000      0.0630
  386.0000      0.0630
  387.0000      0.0623
  388.0000      0.0614
  389.0000      0.0607
  390.0000      0.0601
  391.0000      0.0601
  392.0000      0.0583
  393.0000      0.0581
  394.0000      0.0578
  395.0000      0.0575
  396.0000      0.0562
  397.0000      0.0561
  398.0000      0.0560
  399.0000      0.0554
  400.0000      0.0537
  401.0000      0.0537
  402.0000      0.0535
  403.0000      0.0526
  404.0000      0.0520
  405.0000      0.0520
  406.0000      0.0514
  407.0000      0.0502
  408.0000      0.0500
  409.0000      0.0499
  410.0000      0.0495
  411.0000      0.0489
  412.0000      0.0483
  413.0000      0.0480
  414.0000      0.0476
  415.0000      0.0473
  416.0000      0.0475
  417.0000      0.0471
  418.0000      0.0467
  419.0000      0.0464
  420.0000      0.0460
  421.0000      0.0454
  422.0000      0.0451
  423.0000      0.0447
  424.0000      0.0442
  425.0000      0.0438
  426.0000      0.0434
  427.0000      0.0431
  428.0000      0.0428
  429.0000      0.0424
  430.0000      0.0420
  431.0000      0.0418
  432.0000      0.0413
  433.0000      0.0410
  434.0000      0.0408
  435.0000      0.0406
  436.0000      0.0402
  437.0000      0.0399
  438.0000      0.0396
  439.0000      0.0393
  440.0000      0.0390
  441.0000      0.0386
  442.0000      0.0384
  443.0000      0.0381
  444.0000      0.0378
  445.0000      0.0375
  446.0000      0.0373
  447.0000      0.0370
  448.0000      0.0367
  449.0000      0.0365
  450.0000      0.0362
  451.0000      0.0360
  452.0000      0.0357
  453.0000      0.0355
  454.0000      0.0353
  455.0000      0.0351
  456.0000      0.0349
  457.0000      0.0347
  458.0000      0.0345
  459.0000      0.0342
  460.0000      0.0339
  461.0000      0.0337
  462.0000      0.0334
  463.0000      0.0331
  464.0000      0.0328
  465.0000      0.0325
  466.0000      0.0323
  467.0000      0.0321
  468.0000      0.0319
  469.0000      0.0316
  470.0000      0.0314
  471.0000      0.0312
  472.0000      0.0309
  473.0000      0.0308
  474.0000      0.0306
  475.0000      0.0304
  476.0000      0.0302
  477.0000      0.0300
  478.0000      0.0297
  479.0000      0.0295
  480.0000      0.0293
  481.0000      0.0290
  482.0000      0.0288
  483.0000      0.0287
  484.0000      0.0285
  485.0000      0.0283
  486.0000      0.0281
  487.0000      0.0279
  488.0000      0.0276
  489.0000      0.0274
  490.0000      0.0272
  491.0000      0.0271
  492.0000      0.0269
  493.0000      0.0268
  494.0000      0.0267
  495.0000      0.0266
  496.0000      0.0264
  497.0000      0.0263
  498.0000      0.0262
  499.0000      0.0260
  500.0000      0.0259
  501.0000      0.0258
  502.0000      0.0257
  503.0000      0.0256
  504.0000      0.0255
  505.0000      0.0254
  506.0000      0.0254
  507.0000      0.0253
  508.0000      0.0251
  509.0000      0.0251
  510.0000      0.0249
  511.0000      0.0248
  512.0000      0.0247
  513.0000      0.0246
  514.0000      0.0246
  515.0000      0.0244
  516.0000      0.0243
  517.0000      0.0242
  518.0000      0.0241
  519.0000      0.0241
  520.0000      0.0241
  521.0000      0.0239
  522.0000      0.0238
  523.0000      0.0237
  524.0000      0.0236
  525.0000      0.0235
  526.0000      0.0234
  527.0000      0.0233
  528.0000      0.0232
  529.0000      0.0231
  530.0000      0.0229
  531.0000      0.0228
  532.0000      0.0227
  533.0000      0.0225
  534.0000      0.0224
  535.0000      0.0222
  536.0000      0.0221
  537.0000      0.0220
  538.0000      0.0219
  539.0000      0.0218
  540.0000      0.0216
  541.0000      0.0216
  542.0000      0.0215
  543.0000      0.0213
  544.0000      0.0212
  545.0000      0.0212
  546.0000      0.0211
  547.0000      0.0210
  548.0000      0.0210
  549.0000      0.0209
  550.0000      0.0208
  551.0000      0.0208
  552.0000      0.0207
  553.0000      0.0206
  554.0000      0.0205
  555.0000      0.0204
  556.0000      0.0204
  557.0000      0.0208
  558.0000      0.0207
  559.0000      0.0206
  560.0000      0.0205
  561.0000      0.0204
  562.0000      0.0203
  563.0000      0.0202
  564.0000      0.0201
  565.0000      0.0201
  566.0000      0.0200
  567.0000      0.0199
  568.0000      0.0198
  569.0000      0.0197
  570.0000      0.0196
  571.0000      0.0194
  572.0000      0.0193
  573.0000      0.0192
  574.0000      0.0190
  575.0000      0.0189
  576.0000      0.0188
  577.0000      0.0187
  578.0000      0.0186
  579.0000      0.0185
  580.0000      0.0184
  581.0000      0.0184
  582.0000      0.0182
  583.0000      0.0181
  584.0000      0.0181
  585.0000      0.0180
  586.0000      0.0179
  587.0000      0.0177
  588.0000      0.0177
  589.0000      0.0176
  590.0000      0.0176
  591.0000      0.0175
  592.0000      0.0175
  593.0000      0.0174
  594.0000      0.0174
  595.0000      0.0172
  596.0000      0.0171
  597.0000      0.0170
  598.0000      0.0169
  599.0000      0.0168
  600.0000      0.0167
  601.0000      0.0167
  602.0000      0.0166
  603.0000      0.0166
  604.0000      0.0165
  605.0000      0.0165
  606.0000      0.0165
  607.0000      0.0165
  608.0000      0.0165
  609.0000      0.0164
  610.0000      0.0164
  611.0000      0.0163
  612.0000      0.0162
  613.0000      0.0162
  614.0000      0.0161
  615.0000      0.0161
  616.0000      0.0161
  617.0000      0.0160
  618.0000      0.0160
  619.0000      0.0160
  620.0000      0.0160
  621.0000      0.0159
  622.0000      0.0159
  623.0000      0.0158
  624.0000      0.0157
  625.0000      0.0156
  626.0000      0.0156
  627.0000      0.0154
  628.0000      0.0153
  629.0000      0.0152
  630.0000      0.0152
  631.0000      0.0151
  632.0000      0.0150
  633.0000      0.0150
  634.0000      0.0149
  635.0000      0.0149
  636.0000      0.0149
  637.0000      0.0148
  638.0000      0.0148
  639.0000      0.0148
  640.0000      0.0147
  641.0000      0.0148
  642.0000      0.0147
  643.0000      0.0147
  644.0000      0.0147
  645.0000      0.0147
  646.0000      0.0146
  647.0000      0.0146
  648.0000      0.0146
  649.0000      0.0146
  650.0000      0.0145
  651.0000      0.0145
  652.0000      0.0144
  653.0000      0.0144
  654.0000      0.0143
  655.0000      0.0142
  656.0000      0.0142
  657.0000      0.0141
  658.0000      0.0140
  659.0000      0.0139
  660.0000      0.0139
  661.0000      0.0139
  662.0000      0.0139
  663.0000      0.0139
  664.0000      0.0138
  665.0000      0.0138
  666.0000      0.0139
  667.0000      0.0139
  668.0000      0.0139
  669.0000      0.0139
  670.0000      0.0139
  671.0000      0.0139
  672.0000      0.0139
  673.0000      0.0139
  674.0000      0.0139
  675.0000      0.0139
  676.0000      0.0139
  677.0000      0.0138
  678.0000      0.0138
  679.0000      0.0138
  680.0000      0.0138
  681.0000      0.0137
  682.0000      0.0137
  683.0000      0.0136
  684.0000      0.0136
  685.0000      0.0135
  686.0000      0.0135
  687.0000      0.0134
  688.0000      0.0133
  689.0000      0.0131
  690.0000      0.0130
  691.0000      0.0129
  692.0000      0.0128
  693.0000      0.0127
  694.0000      0.0126
  695.0000      0.0125
  696.0000      0.0124
  697.0000      0.0123
  698.0000      0.0122
  699.0000      0.0121
  700.0000      0.0120
  701.0000      0.0120
  702.0000      0.0120
  703.0000      0.0120
  704.0000      0.0120
  705.0000      0.0119
  706.0000      0.0118
  707.0000      0.0118
  708.0000      0.0117
  709.0000      0.0117
  710.0000      0.0117
  711.0000      0.0117
  712.0000      0.0116
  713.0000      0.0115
  714.0000      0.0114
  715.0000      0.0114
  716.0000      0.0113
  717.0000      0.0112
  718.0000      0.0112
  719.0000      0.0111
  720.0000      0.0110
  721.0000      0.0110
  722.0000      0.0109
  723.0000      0.0109
  724.0000      0.0108
  725.0000      0.0108
  726.0000      0.0108
  727.0000      0.0107
  728.0000      0.0107
  729.0000      0.0105
  730.0000      0.0105
  731.0000      0.0104
  732.0000      0.0103
  733.0000      0.0102
  734.0000      0.0102
  735.0000      0.0101
  736.0000      0.0106
  737.0000      0.0106
  738.0000      0.0106
  739.0000      0.0106
  740.0000      0.0106
  741.0000      0.0105
  742.0000      0.0105
  743.0000      0.0106
  744.0000      0.0106
  745.0000      0.0106
  746.0000      0.0106
  747.0000      0.0106
  748.0000      0.0106
  749.0000      0.0106
  750.0000      0.0104
  751.0000      0.0103
  752.0000      0.0103
  753.0000      0.0104
  754.0000      0.0103
  755.0000      0.0103
  756.0000      0.0102
  757.0000      0.0102
  758.0000      0.0102
  759.0000      0.0102
  760.0000      0.0100
  761.0000      0.0100
  762.0000      0.0100
  763.0000      0.0100
  764.0000      0.0099
  765.0000      0.0098
  766.0000      0.0098
  767.0000      0.0097
  768.0000      0.0097
  769.0000      0.0096
  770.0000      0.0095
  771.0000      0.0094
  772.0000      0.0094
  773.0000      0.0094
  774.0000      0.0093
  775.0000      0.0092
  776.0000      0.0092
  777.0000      0.0091
  778.0000      0.0091
  779.0000      0.0091
  780.0000      0.0091
  781.0000      0.0092
  782.0000      0.0091
  783.0000      0.0092
  784.0000      0.0092
  785.0000      0.0091
  786.0000      0.0091
  787.0000      0.0090
  788.0000      0.0090
  789.0000      0.0090
  790.0000      0.0089
  791.0000      0.0090
  792.0000      0.0089
  793.0000      0.0090
  794.0000      0.0089
  795.0000      0.0089
  796.0000      0.0089
  797.0000      0.0089
  798.0000      0.0089
  799.0000      0.0089
  800.0000      0.0088
