Start Wavelength:    200.0000
End Wavelength:    800.0000
Read Mode:  ABS
Read Average:      0.1000
Nanometer Interval:      1.0000
Time:      0.0000

  200.0000      0.5636
  201.0000      0.4984
  202.0000      0.4685
  203.0000      0.4412
  204.0000      0.4168
  205.0000      0.3975
  206.0000      0.3821
  207.0000      0.3671
  208.0000      0.3544
  209.0000      0.3412
  210.0000      0.3313
  211.0000      0.3220
  212.0000      0.3128
  213.0000      0.3040
  214.0000      0.2960
  215.0000      0.2889
  216.0000      0.2819
  217.0000      0.2755
  218.0000      0.2693
  219.0000      0.2641
  220.0000      0.2583
  221.0000      0.2529
  222.0000      0.2476
  223.0000      0.2428
  224.0000      0.2384
  225.0000      0.2333
  226.0000      0.2290
  227.0000      0.2246
  228.0000      0.2208
  229.0000      0.2160
  230.0000      0.2124
  231.0000      0.2087
  232.0000      0.2048
  233.0000      0.2014
  234.0000      0.1981
  235.0000      0.1950
  236.0000      0.1916
  237.0000      0.1889
  238.0000      0.1859
  239.0000      0.1832
  240.0000      0.1807
  241.0000      0.1778
  242.0000      0.1758
  243.0000      0.1737
  244.0000      0.1722
  245.0000      0.1700
  246.0000      0.1690
  247.0000      0.1678
  248.0000      0.1664
  249.0000      0.1658
  250.0000      0.1643
  251.0000      0.1634
  252.0000      0.1619
  253.0000      0.1614
  254.0000      0.1599
  255.0000      0.1585
  256.0000      0.1578
  257.0000      0.1564
  258.0000      0.1557
  259.0000      0.1544
  260.0000      0.1528
  261.0000      0.1510
  262.0000      0.1496
  263.0000      0.1484
  264.0000      0.1469
  265.0000      0.1459
  266.0000      0.1438
  267.0000      0.1426
  268.0000      0.1409
  269.0000      0.1393
  270.0000      0.1372
  271.0000      0.1360
  272.0000      0.1341
  273.0000      0.1320
  274.0000      0.1299
  275.0000      0.1275
  276.0000      0.1264
  277.0000      0.1242
  278.0000      0.1225
  279.0000      0.1205
  280.0000      0.1186
  281.0000      0.1170
  282.0000      0.1149
  283.0000      0.1134
  284.0000      0.1110
  285.0000      0.1093
  286.0000      0.1076
  287.0000      0.1059
  288.0000      0.1039
  289.0000      0.1023
  290.0000      0.1001
  291.0000      0.0985
  292.0000      0.0966
  293.0000      0.0943
  294.0000      0.0930
  295.0000      0.0915
  296.0000      0.0899
  297.0000      0.0883
  298.0000      0.0869
  299.0000      0.0858
  300.0000      0.0844
  301.0000      0.0829
  302.0000      0.0826
  303.0000      0.0808
  304.0000      0.0788
  305.0000      0.0783
  306.0000      0.0766
  307.0000      0.0758
  308.0000      0.0745
  309.0000      0.0737
  310.0000      0.0733
  311.0000      0.0723
  312.0000      0.0716
  313.0000      0.0695
  314.0000      0.0691
  315.0000      0.0677
  316.0000      0.0677
  317.0000      0.0658
  318.0000      0.0660
  319.0000      0.0647
  320.0000      0.0643
  321.0000      0.0645
  322.0000      0.0632
  323.0000      0.0625
  324.0000      0.0621
  325.0000      0.0611
  326.0000      0.0607
  327.0000      0.0593
  328.0000      0.0597
  329.0000      0.0587
  330.0000      0.0578
  331.0000      0.0573
  332.0000      0.0568
  333.0000      0.0566
  334.0000      0.0560
  335.0000      0.0554
  336.0000      0.0546
  337.0000      0.0549
  338.0000      0.0541
  339.0000      0.0534
  340.0000      0.0528
  341.0000      0.0528
  342.0000      0.0522
  343.0000      0.0514
  344.0000      0.0508
  345.0000      0.0504
  346.0000      0.0502
  347.0000      0.0498
  348.0000      0.0493
  349.0000      0.0487
  350.0000      0.0484
  351.0000      0.0480
  352.0000      0.0479
  353.0000      0.0474
  354.0000      0.0474
  355.0000      0.0467
  356.0000      0.0469
  357.0000      0.0469
  358.0000      0.0478
  359.0000      0.0452
  360.0000      0.0475
  361.0000      0.0450
  362.0000      0.0472
  363.0000      0.0468
  364.0000      0.0459
  365.0000      0.0462
  366.0000      0.0445
  367.0000      0.0450
  368.0000      0.0442
  369.0000      0.0443
  370.0000      0.0437
  371.0000      0.0445
  372.0000      0.0434
  373.0000      0.0435
  374.0000      0.0434
  375.0000      0.0436
  376.0000      0.0433
  377.0000      0.0428
  378.0000      0.0420
  379.0000      0.0423
  380.0000      0.0416
  381.0000      0.0422
  382.0000      0.0416
  383.0000      0.0416
  384.0000      0.0421
  385.0000      0.0409
  386.0000      0.0414
  387.0000      0.0405
  388.0000      0.0409
  389.0000      0.0403
  390.0000      0.0396
  391.0000      0.0400
  392.0000      0.0396
  393.0000      0.0396
  394.0000      0.0393
  395.0000      0.0392
  396.0000      0.0389
  397.0000      0.0389
  398.0000      0.0383
  399.0000      0.0388
  400.0000      0.0379
  401.0000      0.0382
  402.0000      0.0380
  403.0000      0.0378
  404.0000      0.0374
  405.0000      0.0376
  406.0000      0.0371
  407.0000      0.0371
  408.0000      0.0365
  409.0000      0.0366
  410.0000      0.0370
  411.0000      0.0360
  412.0000      0.0365
  413.0000      0.0359
  414.0000      0.0365
  415.0000      0.0362
  416.0000      0.0354
  417.0000      0.0355
  418.0000      0.0352
  419.0000      0.0352
  420.0000      0.0349
  421.0000      0.0347
  422.0000      0.0346
  423.0000      0.0342
  424.0000      0.0342
  425.0000      0.0340
  426.0000      0.0338
  427.0000      0.0337
  428.0000      0.0336
  429.0000      0.0334
  430.0000      0.0331
  431.0000      0.0329
  432.0000      0.0327
  433.0000      0.0325
  434.0000      0.0323
  435.0000      0.0322
  436.0000      0.0321
  437.0000      0.0318
  438.0000      0.0317
  439.0000      0.0315
  440.0000      0.0313
  441.0000      0.0312
  442.0000      0.0311
  443.0000      0.0310
  444.0000      0.0310
  445.0000      0.0308
  446.0000      0.0306
  447.0000      0.0304
  448.0000      0.0302
  449.0000      0.0300
  450.0000      0.0297
  451.0000      0.0295
  452.0000      0.0293
  453.0000      0.0292
  454.0000      0.0293
  455.0000      0.0295
  456.0000      0.0295
  457.0000      0.0296
  458.0000      0.0296
  459.0000      0.0296
  460.0000      0.0295
  461.0000      0.0295
  462.0000      0.0295
  463.0000      0.0294
  464.0000      0.0294
  465.0000      0.0294
  466.0000      0.0294
  467.0000      0.0293
  468.0000      0.0293
  469.0000      0.0293
  470.0000      0.0293
  471.0000      0.0292
  472.0000      0.0291
  473.0000      0.0290
  474.0000      0.0289
  475.0000      0.0288
  476.0000      0.0287
  477.0000      0.0286
  478.0000      0.0287
  479.0000      0.0287
  480.0000      0.0288
  481.0000      0.0288
  482.0000      0.0288
  483.0000      0.0288
  484.0000      0.0288
  485.0000      0.0287
  486.0000      0.0287
  487.0000      0.0287
  488.0000      0.0286
  489.0000      0.0285
  490.0000      0.0284
  491.0000      0.0284
  492.0000      0.0283
  493.0000      0.0283
  494.0000      0.0282
  495.0000      0.0282
  496.0000      0.0282
  497.0000      0.0282
  498.0000      0.0282
  499.0000      0.0281
  500.0000      0.0280
  501.0000      0.0280
  502.0000      0.0280
  503.0000      0.0279
  504.0000      0.0278
  505.0000      0.0278
  506.0000      0.0277
  507.0000      0.0276
  508.0000      0.0275
  509.0000      0.0274
  510.0000      0.0274
  511.0000      0.0274
  512.0000      0.0275
  513.0000      0.0276
  514.0000      0.0277
  515.0000      0.0277
  516.0000      0.0277
  517.0000      0.0276
  518.0000      0.0276
  519.0000      0.0275
  520.0000      0.0274
  521.0000      0.0274
  522.0000      0.0273
  523.0000      0.0273
  524.0000      0.0273
  525.0000      0.0272
  526.0000      0.0271
  527.0000      0.0270
  528.0000      0.0269
  529.0000      0.0267
  530.0000      0.0266
  531.0000      0.0265
  532.0000      0.0264
  533.0000      0.0263
  534.0000      0.0260
  535.0000      0.0256
  536.0000      0.0255
  537.0000      0.0257
  538.0000      0.0256
  539.0000      0.0257
  540.0000      0.0258
  541.0000      0.0257
  542.0000      0.0256
  543.0000      0.0254
  544.0000      0.0253
  545.0000      0.0252
  546.0000      0.0251
  547.0000      0.0251
  548.0000      0.0249
  549.0000      0.0248
  550.0000      0.0247
  551.0000      0.0246
  552.0000      0.0244
  553.0000      0.0242
  554.0000      0.0241
  555.0000      0.0242
  556.0000      0.0242
  557.0000      0.0242
  558.0000      0.0240
  559.0000      0.0238
  560.0000      0.0236
  561.0000      0.0235
  562.0000      0.0235
  563.0000      0.0235
  564.0000      0.0235
  565.0000      0.0236
  566.0000      0.0236
  567.0000      0.0236
  568.0000      0.0236
  569.0000      0.0235
  570.0000      0.0235
  571.0000      0.0235
  572.0000      0.0235
  573.0000      0.0234
  574.0000      0.0234
  575.0000      0.0234
  576.0000      0.0233
  577.0000      0.0232
  578.0000      0.0231
  579.0000      0.0231
  580.0000      0.0231
  581.0000      0.0230
  582.0000      0.0229
  583.0000      0.0229
  584.0000      0.0227
  585.0000      0.0226
  586.0000      0.0225
  587.0000      0.0223
  588.0000      0.0222
  589.0000      0.0221
  590.0000      0.0221
  591.0000      0.0220
  592.0000      0.0219
  593.0000      0.0219
  594.0000      0.0217
  595.0000      0.0216
  596.0000      0.0215
  597.0000      0.0215
  598.0000      0.0214
  599.0000      0.0214
  600.0000      0.0213
  601.0000      0.0212
  602.0000      0.0212
  603.0000      0.0211
  604.0000      0.0210
  605.0000      0.0210
  606.0000      0.0210
  607.0000      0.0210
  608.0000      0.0210
  609.0000      0.0208
  610.0000      0.0207
  611.0000      0.0206
  612.0000      0.0205
  613.0000      0.0203
  614.0000      0.0202
  615.0000      0.0200
  616.0000      0.0200
  617.0000      0.0200
  618.0000      0.0200
  619.0000      0.0201
  620.0000      0.0202
  621.0000      0.0202
  622.0000      0.0203
  623.0000      0.0204
  624.0000      0.0205
  625.0000      0.0205
  626.0000      0.0207
  627.0000      0.0207
  628.0000      0.0207
  629.0000      0.0207
  630.0000      0.0206
  631.0000      0.0207
  632.0000      0.0206
  633.0000      0.0205
  634.0000      0.0203
  635.0000      0.0200
  636.0000      0.0199
  637.0000      0.0198
  638.0000      0.0197
  639.0000      0.0196
  640.0000      0.0197
  641.0000      0.0196
  642.0000      0.0196
  643.0000      0.0196
  644.0000      0.0195
  645.0000      0.0193
  646.0000      0.0193
  647.0000      0.0191
  648.0000      0.0190
  649.0000      0.0189
  650.0000      0.0189
  651.0000      0.0187
  652.0000      0.0185
  653.0000      0.0185
  654.0000      0.0184
  655.0000      0.0184
  656.0000      0.0183
  657.0000      0.0182
  658.0000      0.0182
  659.0000      0.0182
  660.0000      0.0181
  661.0000      0.0181
  662.0000      0.0181
  663.0000      0.0181
  664.0000      0.0181
  665.0000      0.0181
  666.0000      0.0182
  667.0000      0.0182
  668.0000      0.0183
  669.0000      0.0183
  670.0000      0.0183
  671.0000      0.0183
  672.0000      0.0183
  673.0000      0.0183
  674.0000      0.0184
  675.0000      0.0185
  676.0000      0.0186
  677.0000      0.0188
  678.0000      0.0188
  679.0000      0.0189
  680.0000      0.0190
  681.0000      0.0192
  682.0000      0.0194
  683.0000      0.0196
  684.0000      0.0199
  685.0000      0.0201
  686.0000      0.0204
  687.0000      0.0206
  688.0000      0.0208
  689.0000      0.0211
  690.0000      0.0213
  691.0000      0.0214
  692.0000      0.0216
  693.0000      0.0217
  694.0000      0.0219
  695.0000      0.0218
  696.0000      0.0219
  697.0000      0.0218
  698.0000      0.0217
  699.0000      0.0216
  700.0000      0.0214
  701.0000      0.0213
  702.0000      0.0211
  703.0000      0.0209
  704.0000      0.0208
  705.0000      0.0206
  706.0000      0.0203
  707.0000      0.0199
  708.0000      0.0196
  709.0000      0.0192
  710.0000      0.0190
  711.0000      0.0187
  712.0000      0.0185
  713.0000      0.0182
  714.0000      0.0177
  715.0000      0.0176
  716.0000      0.0175
  717.0000      0.0175
  718.0000      0.0175
  719.0000      0.0174
  720.0000      0.0174
  721.0000      0.0173
  722.0000      0.0173
  723.0000      0.0173
  724.0000      0.0172
  725.0000      0.0171
  726.0000      0.0170
  727.0000      0.0169
  728.0000      0.0167
  729.0000      0.0166
  730.0000      0.0166
  731.0000      0.0165
  732.0000      0.0164
  733.0000      0.0163
  734.0000      0.0163
  735.0000      0.0163
  736.0000      0.0164
  737.0000      0.0163
  738.0000      0.0162
  739.0000      0.0160
  740.0000      0.0160
  741.0000      0.0160
  742.0000      0.0160
  743.0000      0.0160
  744.0000      0.0160
  745.0000      0.0159
  746.0000      0.0160
  747.0000      0.0161
  748.0000      0.0161
  749.0000      0.0161
  750.0000      0.0161
  751.0000      0.0162
  752.0000      0.0162
  753.0000      0.0163
  754.0000      0.0163
  755.0000      0.0163
  756.0000      0.0164
  757.0000      0.0163
  758.0000      0.0164
  759.0000      0.0163
  760.0000      0.0163
  761.0000      0.0163
  762.0000      0.0162
  763.0000      0.0161
  764.0000      0.0162
  765.0000      0.0162
  766.0000      0.0162
  767.0000      0.0162
  768.0000      0.0162
  769.0000      0.0162
  770.0000      0.0163
  771.0000      0.0165
  772.0000      0.0167
  773.0000      0.0170
  774.0000      0.0172
  775.0000      0.0174
  776.0000      0.0174
  777.0000      0.0176
  778.0000      0.0179
  779.0000      0.0181
  780.0000      0.0183
  781.0000      0.0184
  782.0000      0.0186
  783.0000      0.0186
  784.0000      0.0188
  785.0000      0.0188
  786.0000      0.0189
  787.0000      0.0189
  788.0000      0.0189
  789.0000      0.0188
  790.0000      0.0186
  791.0000      0.0184
  792.0000      0.0182
  793.0000      0.0180
  794.0000      0.0178
  795.0000      0.0175
  796.0000      0.0174
  797.0000      0.0172
  798.0000      0.0171
  799.0000      0.0170
  800.0000      0.0168
