Start Wavelength:    200.0000
End Wavelength:    800.0000
Read Mode:  ABS
Read Average:      0.1000
Nanometer Interval:      1.0000
Time:      0.0000

  200.0000      1.6114
  201.0000      1.1005
  202.0000      0.9013
  203.0000      0.7516
  204.0000      0.6366
  205.0000      0.5615
  206.0000      0.5109
  207.0000      0.4704
  208.0000      0.4398
  209.0000      0.4128
  210.0000      0.3907
  211.0000      0.3737
  212.0000      0.3589
  213.0000      0.3438
  214.0000      0.3335
  215.0000      0.3225
  216.0000      0.3136
  217.0000      0.3051
  218.0000      0.2981
  219.0000      0.2911
  220.0000      0.2856
  221.0000      0.2794
  222.0000      0.2737
  223.0000      0.2688
  224.0000      0.2639
  225.0000      0.2589
  226.0000      0.2547
  227.0000      0.2493
  228.0000      0.2451
  229.0000      0.2399
  230.0000      0.2358
  231.0000      0.2314
  232.0000      0.2277
  233.0000      0.2232
  234.0000      0.2190
  235.0000      0.2154
  236.0000      0.2110
  237.0000      0.2074
  238.0000      0.2039
  239.0000      0.2011
  240.0000      0.1987
  241.0000      0.1952
  242.0000      0.1932
  243.0000      0.1913
  244.0000      0.1893
  245.0000      0.1874
  246.0000      0.1864
  247.0000      0.1846
  248.0000      0.1835
  249.0000      0.1822
  250.0000      0.1809
  251.0000      0.1798
  252.0000      0.1785
  253.0000      0.1779
  254.0000      0.1765
  255.0000      0.1752
  256.0000      0.1742
  257.0000      0.1733
  258.0000      0.1718
  259.0000      0.1706
  260.0000      0.1695
  261.0000      0.1678
  262.0000      0.1670
  263.0000      0.1656
  264.0000      0.1639
  265.0000      0.1635
  266.0000      0.1616
  267.0000      0.1601
  268.0000      0.1591
  269.0000      0.1574
  270.0000      0.1553
  271.0000      0.1543
  272.0000      0.1523
  273.0000      0.1512
  274.0000      0.1492
  275.0000      0.1466
  276.0000      0.1457
  277.0000      0.1440
  278.0000      0.1416
  279.0000      0.1401
  280.0000      0.1389
  281.0000      0.1364
  282.0000      0.1350
  283.0000      0.1329
  284.0000      0.1309
  285.0000      0.1292
  286.0000      0.1274
  287.0000      0.1248
  288.0000      0.1230
  289.0000      0.1211
  290.0000      0.1191
  291.0000      0.1177
  292.0000      0.1149
  293.0000      0.1139
  294.0000      0.1124
  295.0000      0.1108
  296.0000      0.1094
  297.0000      0.1074
  298.0000      0.1063
  299.0000      0.1051
  300.0000      0.1042
  301.0000      0.1021
  302.0000      0.1020
  303.0000      0.1000
  304.0000      0.0993
  305.0000      0.0987
  306.0000      0.0969
  307.0000      0.0964
  308.0000      0.0957
  309.0000      0.0942
  310.0000      0.0938
  311.0000      0.0928
  312.0000      0.0920
  313.0000      0.0911
  314.0000      0.0902
  315.0000      0.0898
  316.0000      0.0893
  317.0000      0.0882
  318.0000      0.0884
  319.0000      0.0871
  320.0000      0.0865
  321.0000      0.0867
  322.0000      0.0857
  323.0000      0.0855
  324.0000      0.0845
  325.0000      0.0842
  326.0000      0.0840
  327.0000      0.0829
  328.0000      0.0827
  329.0000      0.0822
  330.0000      0.0813
  331.0000      0.0812
  332.0000      0.0804
  333.0000      0.0800
  334.0000      0.0800
  335.0000      0.0794
  336.0000      0.0788
  337.0000      0.0789
  338.0000      0.0782
  339.0000      0.0778
  340.0000      0.0777
  341.0000      0.0771
  342.0000      0.0766
  343.0000      0.0760
  344.0000      0.0757
  345.0000      0.0754
  346.0000      0.0755
  347.0000      0.0747
  348.0000      0.0746
  349.0000      0.0746
  350.0000      0.0739
  351.0000      0.0739
  352.0000      0.0737
  353.0000      0.0729
  354.0000      0.0731
  355.0000      0.0724
  356.0000      0.0724
  357.0000      0.0712
  358.0000      0.0719
  359.0000      0.0717
  360.0000      0.0704
  361.0000      0.0706
  362.0000      0.0704
  363.0000      0.0699
  364.0000      0.0692
  365.0000      0.0703
  366.0000      0.0675
  367.0000      0.0682
  368.0000      0.0672
  369.0000      0.0663
  370.0000      0.0672
  371.0000      0.0654
  372.0000      0.0664
  373.0000      0.0659
  374.0000      0.0652
  375.0000      0.0650
  376.0000      0.0653
  377.0000      0.0646
  378.0000      0.0645
  379.0000      0.0638
  380.0000      0.0636
  381.0000      0.0637
  382.0000      0.0625
  383.0000      0.0629
  384.0000      0.0641
  385.0000      0.0618
  386.0000      0.0625
  387.0000      0.0618
  388.0000      0.0617
  389.0000      0.0621
  390.0000      0.0610
  391.0000      0.0616
  392.0000      0.0612
  393.0000      0.0608
  394.0000      0.0607
  395.0000      0.0608
  396.0000      0.0603
  397.0000      0.0605
  398.0000      0.0605
  399.0000      0.0603
  400.0000      0.0604
  401.0000      0.0600
  402.0000      0.0604
  403.0000      0.0602
  404.0000      0.0596
  405.0000      0.0599
  406.0000      0.0597
  407.0000      0.0594
  408.0000      0.0595
  409.0000      0.0590
  410.0000      0.0595
  411.0000      0.0593
  412.0000      0.0590
  413.0000      0.0589
  414.0000      0.0589
  415.0000      0.0587
  416.0000      0.0580
  417.0000      0.0578
  418.0000      0.0577
  419.0000      0.0575
  420.0000      0.0574
  421.0000      0.0573
  422.0000      0.0571
  423.0000      0.0569
  424.0000      0.0569
  425.0000      0.0567
  426.0000      0.0567
  427.0000      0.0564
  428.0000      0.0564
  429.0000      0.0562
  430.0000      0.0558
  431.0000      0.0558
  432.0000      0.0557
  433.0000      0.0556
  434.0000      0.0556
  435.0000      0.0556
  436.0000      0.0554
  437.0000      0.0555
  438.0000      0.0554
  439.0000      0.0553
  440.0000      0.0551
  441.0000      0.0550
  442.0000      0.0549
  443.0000      0.0549
  444.0000      0.0549
  445.0000      0.0548
  446.0000      0.0547
  447.0000      0.0546
  448.0000      0.0544
  449.0000      0.0543
  450.0000      0.0542
  451.0000      0.0540
  452.0000      0.0539
  453.0000      0.0537
  454.0000      0.0536
  455.0000      0.0534
  456.0000      0.0533
  457.0000      0.0531
  458.0000      0.0530
  459.0000      0.0528
  460.0000      0.0526
  461.0000      0.0525
  462.0000      0.0523
  463.0000      0.0522
  464.0000      0.0521
  465.0000      0.0520
  466.0000      0.0520
  467.0000      0.0518
  468.0000      0.0517
  469.0000      0.0515
  470.0000      0.0514
  471.0000      0.0512
  472.0000      0.0510
  473.0000      0.0508
  474.0000      0.0506
  475.0000      0.0503
  476.0000      0.0501
  477.0000      0.0498
  478.0000      0.0497
  479.0000      0.0495
  480.0000      0.0494
  481.0000      0.0493
  482.0000      0.0491
  483.0000      0.0490
  484.0000      0.0489
  485.0000      0.0488
  486.0000      0.0487
  487.0000      0.0487
  488.0000      0.0485
  489.0000      0.0484
  490.0000      0.0483
  491.0000      0.0482
  492.0000      0.0481
  493.0000      0.0479
  494.0000      0.0479
  495.0000      0.0478
  496.0000      0.0478
  497.0000      0.0477
  498.0000      0.0476
  499.0000      0.0475
  500.0000      0.0473
  501.0000      0.0471
  502.0000      0.0469
  503.0000      0.0469
  504.0000      0.0467
  505.0000      0.0466
  506.0000      0.0464
  507.0000      0.0463
  508.0000      0.0462
  509.0000      0.0460
  510.0000      0.0459
  511.0000      0.0458
  512.0000      0.0456
  513.0000      0.0455
  514.0000      0.0454
  515.0000      0.0452
  516.0000      0.0450
  517.0000      0.0449
  518.0000      0.0448
  519.0000      0.0447
  520.0000      0.0446
  521.0000      0.0445
  522.0000      0.0444
  523.0000      0.0443
  524.0000      0.0442
  525.0000      0.0441
  526.0000      0.0440
  527.0000      0.0438
  528.0000      0.0437
  529.0000      0.0435
  530.0000      0.0433
  531.0000      0.0430
  532.0000      0.0428
  533.0000      0.0427
  534.0000      0.0426
  535.0000      0.0425
  536.0000      0.0425
  537.0000      0.0424
  538.0000      0.0424
  539.0000      0.0424
  540.0000      0.0424
  541.0000      0.0423
  542.0000      0.0422
  543.0000      0.0422
  544.0000      0.0420
  545.0000      0.0419
  546.0000      0.0418
  547.0000      0.0417
  548.0000      0.0416
  549.0000      0.0415
  550.0000      0.0415
  551.0000      0.0415
  552.0000      0.0414
  553.0000      0.0413
  554.0000      0.0411
  555.0000      0.0410
  556.0000      0.0409
  557.0000      0.0413
  558.0000      0.0412
  559.0000      0.0412
  560.0000      0.0411
  561.0000      0.0411
  562.0000      0.0410
  563.0000      0.0410
  564.0000      0.0410
  565.0000      0.0409
  566.0000      0.0409
  567.0000      0.0408
  568.0000      0.0408
  569.0000      0.0408
  570.0000      0.0408
  571.0000      0.0408
  572.0000      0.0408
  573.0000      0.0408
  574.0000      0.0408
  575.0000      0.0408
  576.0000      0.0407
  577.0000      0.0407
  578.0000      0.0406
  579.0000      0.0405
  580.0000      0.0404
  581.0000      0.0403
  582.0000      0.0401
  583.0000      0.0401
  584.0000      0.0400
  585.0000      0.0399
  586.0000      0.0398
  587.0000      0.0397
  588.0000      0.0396
  589.0000      0.0397
  590.0000      0.0397
  591.0000      0.0397
  592.0000      0.0397
  593.0000      0.0397
  594.0000      0.0396
  595.0000      0.0394
  596.0000      0.0393
  597.0000      0.0391
  598.0000      0.0390
  599.0000      0.0390
  600.0000      0.0390
  601.0000      0.0390
  602.0000      0.0389
  603.0000      0.0389
  604.0000      0.0390
  605.0000      0.0390
  606.0000      0.0391
  607.0000      0.0391
  608.0000      0.0391
  609.0000      0.0392
  610.0000      0.0392
  611.0000      0.0391
  612.0000      0.0390
  613.0000      0.0390
  614.0000      0.0391
  615.0000      0.0391
  616.0000      0.0391
  617.0000      0.0391
  618.0000      0.0392
  619.0000      0.0393
  620.0000      0.0393
  621.0000      0.0393
  622.0000      0.0393
  623.0000      0.0394
  624.0000      0.0394
  625.0000      0.0395
  626.0000      0.0395
  627.0000      0.0396
  628.0000      0.0397
  629.0000      0.0398
  630.0000      0.0399
  631.0000      0.0399
  632.0000      0.0398
  633.0000      0.0399
  634.0000      0.0400
  635.0000      0.0402
  636.0000      0.0402
  637.0000      0.0403
  638.0000      0.0404
  639.0000      0.0405
  640.0000      0.0406
  641.0000      0.0406
  642.0000      0.0407
  643.0000      0.0407
  644.0000      0.0407
  645.0000      0.0406
  646.0000      0.0405
  647.0000      0.0403
  648.0000      0.0402
  649.0000      0.0399
  650.0000      0.0396
  651.0000      0.0394
  652.0000      0.0394
  653.0000      0.0391
  654.0000      0.0388
  655.0000      0.0386
  656.0000      0.0385
  657.0000      0.0383
  658.0000      0.0382
  659.0000      0.0382
  660.0000      0.0382
  661.0000      0.0382
  662.0000      0.0382
  663.0000      0.0383
  664.0000      0.0383
  665.0000      0.0384
  666.0000      0.0384
  667.0000      0.0386
  668.0000      0.0387
  669.0000      0.0389
  670.0000      0.0390
  671.0000      0.0391
  672.0000      0.0391
  673.0000      0.0393
  674.0000      0.0395
  675.0000      0.0396
  676.0000      0.0397
  677.0000      0.0398
  678.0000      0.0399
  679.0000      0.0400
  680.0000      0.0401
  681.0000      0.0400
  682.0000      0.0401
  683.0000      0.0401
  684.0000      0.0400
  685.0000      0.0398
  686.0000      0.0397
  687.0000      0.0395
  688.0000      0.0394
  689.0000      0.0392
  690.0000      0.0390
  691.0000      0.0388
  692.0000      0.0386
  693.0000      0.0384
  694.0000      0.0383
  695.0000      0.0381
  696.0000      0.0379
  697.0000      0.0377
  698.0000      0.0375
  699.0000      0.0374
  700.0000      0.0372
  701.0000      0.0370
  702.0000      0.0368
  703.0000      0.0367
  704.0000      0.0366
  705.0000      0.0364
  706.0000      0.0363
  707.0000      0.0363
  708.0000      0.0361
  709.0000      0.0360
  710.0000      0.0359
  711.0000      0.0358
  712.0000      0.0357
  713.0000      0.0356
  714.0000      0.0355
  715.0000      0.0353
  716.0000      0.0352
  717.0000      0.0352
  718.0000      0.0351
  719.0000      0.0350
  720.0000      0.0349
  721.0000      0.0348
  722.0000      0.0347
  723.0000      0.0346
  724.0000      0.0345
  725.0000      0.0344
  726.0000      0.0344
  727.0000      0.0344
  728.0000      0.0345
  729.0000      0.0345
  730.0000      0.0345
  731.0000      0.0345
  732.0000      0.0345
  733.0000      0.0345
  734.0000      0.0345
  735.0000      0.0345
  736.0000      0.0330
  737.0000      0.0328
  738.0000      0.0327
  739.0000      0.0326
  740.0000      0.0326
  741.0000      0.0325
  742.0000      0.0324
  743.0000      0.0325
  744.0000      0.0325
  745.0000      0.0324
  746.0000      0.0323
  747.0000      0.0324
  748.0000      0.0324
  749.0000      0.0324
  750.0000      0.0324
  751.0000      0.0324
  752.0000      0.0325
  753.0000      0.0325
  754.0000      0.0325
  755.0000      0.0325
  756.0000      0.0326
  757.0000      0.0325
  758.0000      0.0326
  759.0000      0.0326
  760.0000      0.0327
  761.0000      0.0328
  762.0000      0.0328
  763.0000      0.0327
  764.0000      0.0328
  765.0000      0.0327
  766.0000      0.0327
  767.0000      0.0327
  768.0000      0.0326
  769.0000      0.0325
  770.0000      0.0325
  771.0000      0.0324
  772.0000      0.0323
  773.0000      0.0322
  774.0000      0.0322
  775.0000      0.0321
  776.0000      0.0320
  777.0000      0.0319
  778.0000      0.0318
  779.0000      0.0318
  780.0000      0.0317
  781.0000      0.0316
  782.0000      0.0315
  783.0000      0.0314
  784.0000      0.0313
  785.0000      0.0311
  786.0000      0.0310
  787.0000      0.0309
  788.0000      0.0308
  789.0000      0.0308
  790.0000      0.0308
  791.0000      0.0308
  792.0000      0.0307
  793.0000      0.0306
  794.0000      0.0304
  795.0000      0.0303
  796.0000      0.0302
  797.0000      0.0301
  798.0000      0.0299
  799.0000      0.0299
  800.0000      0.0298
